#
#
# Results on Friday March 19 2021 09:49:16 UTC.
# USER AGENT: Mozilla/5.0 (iPhone; CPU iPhone OS 14_4 like Mac OS X) AppleWebKit/605.1.15 (KHTML, like Gecko) Version/14.0.3 Mobile/15E148 Safari/604.1
# Design number was non-random = 90
#
# Columns below this comment are as follows:
# 1. Time results were received.
# 2. MD5 hash of participant's IP address.
# 3. Controller name.
# 4. Item number.
# 5. Element number.
# 6. Type.
# 7. Group.
# 8. PennElementType.
# 9. PennElementName.
# 10. Parameter.
# 11. Value.
# 12. EventTime.
# 13. Comments.
1616147357,77d14530bad81d1071193b2388a27c6c,PennController,1,0,intro,NULL,PennController,0,_Trial_,Start,1616147131956,NULL
1616147357,77d14530bad81d1071193b2388a27c6c,PennController,1,0,intro,NULL,Html,consent,consent,checked,1616147165121,checkbox
1616147357,77d14530bad81d1071193b2388a27c6c,PennController,1,0,intro,NULL,PennController,0,_Trial_,End,1616147165122,NULL
1616147357,77d14530bad81d1071193b2388a27c6c,PennController,2,0,form,NULL,PennController,1,_Trial_,Start,1616147165129,NULL
1616147357,77d14530bad81d1071193b2388a27c6c,PennController,2,0,form,NULL,Html,demographics,age,22,1616147191117,text input
1616147357,77d14530bad81d1071193b2388a27c6c,PennController,2,0,form,NULL,PennController,1,_Trial_,End,1616147191118,NULL
1616147357,77d14530bad81d1071193b2388a27c6c,PennController,2,0,form,NULL,Html,demographics,lg,cs,1616147191118,radio button
1616147357,77d14530bad81d1071193b2388a27c6c,PennController,2,0,form,NULL,Html,demographics,readingProb,no,1616147191118,radio button
1616147357,77d14530bad81d1071193b2388a27c6c,PennController,2,0,form,NULL,Html,demographics,education,highw,1616147191118,radio button
1616147357,77d14530bad81d1071193b2388a27c6c,PennController,2,0,form,NULL,Html,demographics,gender,žena,1616147191118,radio button
1616147357,77d14530bad81d1071193b2388a27c6c,PennController,2,0,form,NULL,Html,demographics,profese,Právo%2C FF,1616147191118,text input
1616147357,77d14530bad81d1071193b2388a27c6c,PennController,3,0,prePractice,NULL,PennController,2,_Trial_,Start,1616147191122,NULL
1616147357,77d14530bad81d1071193b2388a27c6c,PennController,3,0,prePractice,NULL,PennController,2,_Trial_,End,1616147210153,NULL
1616147357,77d14530bad81d1071193b2388a27c6c,PennController,4,0,practice1,NULL,PennController,3,_Trial_,Start,1616147210159,NULL
1616147357,77d14530bad81d1071193b2388a27c6c,PennController,4,0,practice1,NULL,Selector,unnamed-Selector,Selection,positive,1616147213648,NULL
1616147357,77d14530bad81d1071193b2388a27c6c,PennController,4,0,practice1,NULL,PennController,3,_Trial_,End,1616147214177,NULL
1616147357,77d14530bad81d1071193b2388a27c6c,PennController,5,0,practice2,NULL,PennController,4,_Trial_,Start,1616147214181,NULL
1616147357,77d14530bad81d1071193b2388a27c6c,PennController,5,0,practice2,NULL,Selector,unnamed-Selector,Selection,negative,1616147217079,NULL
1616147357,77d14530bad81d1071193b2388a27c6c,PennController,5,0,practice2,NULL,PennController,4,_Trial_,End,1616147217594,NULL
1616147357,77d14530bad81d1071193b2388a27c6c,PennController,6,0,afterPractice,NULL,PennController,5,_Trial_,Start,1616147217599,NULL
1616147357,77d14530bad81d1071193b2388a27c6c,PennController,6,0,afterPractice,NULL,PennController,5,_Trial_,End,1616147221753,NULL
# Columns below this comment are as follows:
# 1. Time results were received.
# 2. MD5 hash of participant's IP address.
# 3. Controller name.
# 4. Item number.
# 5. Element number.
# 6. Type.
# 7. Group.
# 8. PennElementType.
# 9. PennElementName.
# 10. Parameter.
# 11. Value.
# 12. EventTime.
# 13. Item.
# 14. Answer.correct.
# 15. ArgumentVariation.
# 16. Transitive.
# 17. Grammatical.
# 18. Comments.
1616147357,77d14530bad81d1071193b2388a27c6c,PennController,9,0,experiment,NULL,PennController,10,_Trial_,Start,1616147221761,11_TG,TRUE,oddělit-1,TRUE,TRUE,NULL
1616147357,77d14530bad81d1071193b2388a27c6c,PennController,9,0,experiment,NULL,Selector,sentence-judgement-selector,Selection,positive,1616147225376,11_TG,TRUE,oddělit-1,TRUE,TRUE,NULL
1616147357,77d14530bad81d1071193b2388a27c6c,PennController,9,0,experiment,NULL,PennController,10,_Trial_,End,1616147225912,11_TG,TRUE,oddělit-1,TRUE,TRUE,NULL
1616147357,77d14530bad81d1071193b2388a27c6c,PennController,27,0,experiment,NULL,PennController,28,_Trial_,Start,1616147225918,17_TA,FALSE,ponořit-2,TRUE,FALSE,NULL
1616147357,77d14530bad81d1071193b2388a27c6c,PennController,27,0,experiment,NULL,Selector,sentence-judgement-selector,Selection,negative,1616147228643,17_TA,FALSE,ponořit-2,TRUE,FALSE,NULL
1616147357,77d14530bad81d1071193b2388a27c6c,PennController,27,0,experiment,NULL,PennController,28,_Trial_,End,1616147229174,17_TA,FALSE,ponořit-2,TRUE,FALSE,NULL
1616147357,77d14530bad81d1071193b2388a27c6c,PennController,33,0,experiment,NULL,PennController,34,_Trial_,Start,1616147229179,29_RA,FALSE,trápit-2,FALSE,FALSE,NULL
1616147357,77d14530bad81d1071193b2388a27c6c,PennController,33,0,experiment,NULL,Selector,sentence-judgement-selector,Selection,negative,1616147232993,29_RA,FALSE,trápit-2,FALSE,FALSE,NULL
1616147357,77d14530bad81d1071193b2388a27c6c,PennController,33,0,experiment,NULL,PennController,34,_Trial_,End,1616147233532,29_RA,FALSE,trápit-2,FALSE,FALSE,NULL
1616147357,77d14530bad81d1071193b2388a27c6c,PennController,12,0,experiment,NULL,PennController,13,_Trial_,Start,1616147233535,8_TA,FALSE,probudit-1,TRUE,FALSE,NULL
1616147357,77d14530bad81d1071193b2388a27c6c,PennController,12,0,experiment,NULL,Selector,sentence-judgement-selector,Selection,negative,1616147236942,8_TA,FALSE,probudit-1,TRUE,FALSE,NULL
1616147357,77d14530bad81d1071193b2388a27c6c,PennController,12,0,experiment,NULL,PennController,13,_Trial_,End,1616147237452,8_TA,FALSE,probudit-1,TRUE,FALSE,NULL
1616147357,77d14530bad81d1071193b2388a27c6c,PennController,7,0,experiment,NULL,PennController,8,_Trial_,Start,1616147237455,9_RG,TRUE,hájit-1,FALSE,TRUE,NULL
1616147357,77d14530bad81d1071193b2388a27c6c,PennController,7,0,experiment,NULL,Selector,sentence-judgement-selector,Selection,positive,1616147240124,9_RG,TRUE,hájit-1,FALSE,TRUE,NULL
1616147357,77d14530bad81d1071193b2388a27c6c,PennController,7,0,experiment,NULL,PennController,8,_Trial_,End,1616147240631,9_RG,TRUE,hájit-1,FALSE,TRUE,NULL
1616147357,77d14530bad81d1071193b2388a27c6c,PennController,29,0,experiment,NULL,PennController,30,_Trial_,Start,1616147240636,19_RA,FALSE,přestěhovat-2,FALSE,FALSE,NULL
1616147357,77d14530bad81d1071193b2388a27c6c,PennController,29,0,experiment,NULL,Selector,sentence-judgement-selector,Selection,negative,1616147243292,19_RA,FALSE,přestěhovat-2,FALSE,FALSE,NULL
1616147357,77d14530bad81d1071193b2388a27c6c,PennController,29,0,experiment,NULL,PennController,30,_Trial_,End,1616147243821,19_RA,FALSE,přestěhovat-2,FALSE,FALSE,NULL
1616147357,77d14530bad81d1071193b2388a27c6c,PennController,32,0,experiment,NULL,PennController,33,_Trial_,Start,1616147243826,28_TG,TRUE,stáhnout-2,TRUE,TRUE,NULL
1616147357,77d14530bad81d1071193b2388a27c6c,PennController,32,0,experiment,NULL,Selector,sentence-judgement-selector,Selection,positive,1616147246967,28_TG,TRUE,stáhnout-2,TRUE,TRUE,NULL
1616147357,77d14530bad81d1071193b2388a27c6c,PennController,32,0,experiment,NULL,PennController,33,_Trial_,End,1616147247474,28_TG,TRUE,stáhnout-2,TRUE,TRUE,NULL
1616147357,77d14530bad81d1071193b2388a27c6c,PennController,16,0,experiment,NULL,PennController,17,_Trial_,Start,1616147247477,12_TA,FALSE,stáhnout-1,TRUE,FALSE,NULL
1616147357,77d14530bad81d1071193b2388a27c6c,PennController,16,0,experiment,NULL,Selector,sentence-judgement-selector,Selection,negative,1616147250741,12_TA,FALSE,stáhnout-1,TRUE,FALSE,NULL
1616147357,77d14530bad81d1071193b2388a27c6c,PennController,16,0,experiment,NULL,PennController,17,_Trial_,End,1616147251252,12_TA,FALSE,stáhnout-1,TRUE,FALSE,NULL
1616147357,77d14530bad81d1071193b2388a27c6c,PennController,23,0,experiment,NULL,PennController,24,_Trial_,Start,1616147251256,25_TA,FALSE,hájit-2,TRUE,FALSE,NULL
1616147357,77d14530bad81d1071193b2388a27c6c,PennController,23,0,experiment,NULL,Selector,sentence-judgement-selector,Selection,negative,1616147254949,25_TA,FALSE,hájit-2,TRUE,FALSE,NULL
1616147357,77d14530bad81d1071193b2388a27c6c,PennController,23,0,experiment,NULL,PennController,24,_Trial_,End,1616147255483,25_TA,FALSE,hájit-2,TRUE,FALSE,NULL
1616147357,77d14530bad81d1071193b2388a27c6c,PennController,13,0,experiment,NULL,PennController,14,_Trial_,Start,1616147255488,3_TG,TRUE,přestěhovat-1,TRUE,TRUE,NULL
1616147357,77d14530bad81d1071193b2388a27c6c,PennController,13,0,experiment,NULL,Selector,sentence-judgement-selector,Selection,positive,1616147259782,3_TG,TRUE,přestěhovat-1,TRUE,TRUE,NULL
1616147357,77d14530bad81d1071193b2388a27c6c,PennController,13,0,experiment,NULL,PennController,14,_Trial_,End,1616147260312,3_TG,TRUE,přestěhovat-1,TRUE,TRUE,NULL
1616147357,77d14530bad81d1071193b2388a27c6c,PennController,22,0,experiment,NULL,PennController,23,_Trial_,Start,1616147260316,7_RA,FALSE,zbavit-1,FALSE,FALSE,NULL
1616147357,77d14530bad81d1071193b2388a27c6c,PennController,22,0,experiment,NULL,Selector,sentence-judgement-selector,Selection,negative,1616147262632,7_RA,FALSE,zbavit-1,FALSE,FALSE,NULL
1616147357,77d14530bad81d1071193b2388a27c6c,PennController,22,0,experiment,NULL,PennController,23,_Trial_,End,1616147263162,7_RA,FALSE,zbavit-1,FALSE,FALSE,NULL
1616147357,77d14530bad81d1071193b2388a27c6c,PennController,20,0,experiment,NULL,PennController,21,_Trial_,Start,1616147263167,6_TA,FALSE,zaměřit-1,TRUE,FALSE,NULL
1616147357,77d14530bad81d1071193b2388a27c6c,PennController,20,0,experiment,NULL,Selector,sentence-judgement-selector,Selection,negative,1616147269373,6_TA,FALSE,zaměřit-1,TRUE,FALSE,NULL
1616147357,77d14530bad81d1071193b2388a27c6c,PennController,20,0,experiment,NULL,PennController,21,_Trial_,End,1616147269886,6_TA,FALSE,zaměřit-1,TRUE,FALSE,NULL
1616147357,77d14530bad81d1071193b2388a27c6c,PennController,37,0,experiment,NULL,PennController,38,_Trial_,Start,1616147269889,31_RA,FALSE,zapsat-2,FALSE,FALSE,NULL
1616147357,77d14530bad81d1071193b2388a27c6c,PennController,37,0,experiment,NULL,Selector,sentence-judgement-selector,Selection,positive,1616147276040,31_RA,FALSE,zapsat-2,FALSE,FALSE,NULL
1616147357,77d14530bad81d1071193b2388a27c6c,PennController,37,0,experiment,NULL,PennController,38,_Trial_,End,1616147276572,31_RA,FALSE,zapsat-2,FALSE,FALSE,NULL
1616147357,77d14530bad81d1071193b2388a27c6c,PennController,24,0,experiment,NULL,PennController,25,_Trial_,Start,1616147276576,18_TG,TRUE,naklonit-2,TRUE,TRUE,NULL
1616147357,77d14530bad81d1071193b2388a27c6c,PennController,24,0,experiment,NULL,Selector,sentence-judgement-selector,Selection,positive,1616147279197,18_TG,TRUE,naklonit-2,TRUE,TRUE,NULL
1616147357,77d14530bad81d1071193b2388a27c6c,PennController,24,0,experiment,NULL,PennController,25,_Trial_,End,1616147279728,18_TG,TRUE,naklonit-2,TRUE,TRUE,NULL
1616147357,77d14530bad81d1071193b2388a27c6c,PennController,25,0,experiment,NULL,PennController,26,_Trial_,Start,1616147279732,27_RA,FALSE,oddělit-2,FALSE,FALSE,NULL
1616147357,77d14530bad81d1071193b2388a27c6c,PennController,25,0,experiment,NULL,Selector,sentence-judgement-selector,Selection,negative,1616147282964,27_RA,FALSE,oddělit-2,FALSE,FALSE,NULL
1616147357,77d14530bad81d1071193b2388a27c6c,PennController,25,0,experiment,NULL,PennController,26,_Trial_,End,1616147283472,27_RA,FALSE,oddělit-2,FALSE,FALSE,NULL
1616147357,77d14530bad81d1071193b2388a27c6c,PennController,34,0,experiment,NULL,PennController,35,_Trial_,Start,1616147283476,21_RG,TRUE,vypravit-2,FALSE,TRUE,NULL
1616147357,77d14530bad81d1071193b2388a27c6c,PennController,34,0,experiment,NULL,Selector,sentence-judgement-selector,Selection,positive,1616147285722,21_RG,TRUE,vypravit-2,FALSE,TRUE,NULL
1616147357,77d14530bad81d1071193b2388a27c6c,PennController,34,0,experiment,NULL,PennController,35,_Trial_,End,1616147286232,21_RG,TRUE,vypravit-2,FALSE,TRUE,NULL
1616147357,77d14530bad81d1071193b2388a27c6c,PennController,21,0,experiment,NULL,PennController,22,_Trial_,Start,1616147286236,15_TG,TRUE,zapsat-1,TRUE,TRUE,NULL
1616147357,77d14530bad81d1071193b2388a27c6c,PennController,21,0,experiment,NULL,Selector,sentence-judgement-selector,Selection,positive,1616147290823,15_TG,TRUE,zapsat-1,TRUE,TRUE,NULL
1616147357,77d14530bad81d1071193b2388a27c6c,PennController,21,0,experiment,NULL,PennController,22,_Trial_,End,1616147291330,15_TG,TRUE,zapsat-1,TRUE,TRUE,NULL
1616147357,77d14530bad81d1071193b2388a27c6c,PennController,19,0,experiment,NULL,PennController,20,_Trial_,Start,1616147291335,14_RG,TRUE,vzbudit-1,FALSE,TRUE,NULL
1616147357,77d14530bad81d1071193b2388a27c6c,PennController,19,0,experiment,NULL,Selector,sentence-judgement-selector,Selection,positive,1616147293247,14_RG,TRUE,vzbudit-1,FALSE,TRUE,NULL
1616147357,77d14530bad81d1071193b2388a27c6c,PennController,19,0,experiment,NULL,PennController,20,_Trial_,End,1616147293761,14_RG,TRUE,vzbudit-1,FALSE,TRUE,NULL
1616147357,77d14530bad81d1071193b2388a27c6c,PennController,15,0,experiment,NULL,PennController,16,_Trial_,Start,1616147293765,16_RG,TRUE,spojit-1,FALSE,TRUE,NULL
1616147357,77d14530bad81d1071193b2388a27c6c,PennController,15,0,experiment,NULL,Selector,sentence-judgement-selector,Selection,positive,1616147296314,16_RG,TRUE,spojit-1,FALSE,TRUE,NULL
1616147357,77d14530bad81d1071193b2388a27c6c,PennController,15,0,experiment,NULL,PennController,16,_Trial_,End,1616147296829,16_RG,TRUE,spojit-1,FALSE,TRUE,NULL
1616147357,77d14530bad81d1071193b2388a27c6c,PennController,31,0,experiment,NULL,PennController,32,_Trial_,Start,1616147296832,32_TA,FALSE,spojit-2,TRUE,FALSE,NULL
1616147357,77d14530bad81d1071193b2388a27c6c,PennController,31,0,experiment,NULL,Selector,sentence-judgement-selector,Selection,negative,1616147300037,32_TA,FALSE,spojit-2,TRUE,FALSE,NULL
1616147357,77d14530bad81d1071193b2388a27c6c,PennController,31,0,experiment,NULL,PennController,32,_Trial_,End,1616147300541,32_TA,FALSE,spojit-2,TRUE,FALSE,NULL
1616147357,77d14530bad81d1071193b2388a27c6c,PennController,35,0,experiment,NULL,PennController,36,_Trial_,Start,1616147300546,30_TA,FALSE,vzbudit-2,TRUE,FALSE,NULL
1616147357,77d14530bad81d1071193b2388a27c6c,PennController,35,0,experiment,NULL,Selector,sentence-judgement-selector,Selection,negative,1616147303362,30_TA,FALSE,vzbudit-2,TRUE,FALSE,NULL
1616147357,77d14530bad81d1071193b2388a27c6c,PennController,35,0,experiment,NULL,PennController,36,_Trial_,End,1616147303870,30_TA,FALSE,vzbudit-2,TRUE,FALSE,NULL
1616147357,77d14530bad81d1071193b2388a27c6c,PennController,8,0,experiment,NULL,PennController,9,_Trial_,Start,1616147303873,2_TA,FALSE,naklonit-1,TRUE,FALSE,NULL
1616147357,77d14530bad81d1071193b2388a27c6c,PennController,8,0,experiment,NULL,Selector,sentence-judgement-selector,Selection,negative,1616147309628,2_TA,FALSE,naklonit-1,TRUE,FALSE,NULL
1616147357,77d14530bad81d1071193b2388a27c6c,PennController,8,0,experiment,NULL,PennController,9,_Trial_,End,1616147310148,2_TA,FALSE,naklonit-1,TRUE,FALSE,NULL
1616147357,77d14530bad81d1071193b2388a27c6c,PennController,26,0,experiment,NULL,PennController,27,_Trial_,Start,1616147310151,26_RG,TRUE,ohlásit-2,FALSE,TRUE,NULL
1616147357,77d14530bad81d1071193b2388a27c6c,PennController,26,0,experiment,NULL,Selector,sentence-judgement-selector,Selection,positive,1616147313587,26_RG,TRUE,ohlásit-2,FALSE,TRUE,NULL
1616147357,77d14530bad81d1071193b2388a27c6c,PennController,26,0,experiment,NULL,PennController,27,_Trial_,End,1616147314101,26_RG,TRUE,ohlásit-2,FALSE,TRUE,NULL
1616147357,77d14530bad81d1071193b2388a27c6c,PennController,10,0,experiment,NULL,PennController,11,_Trial_,Start,1616147314105,10_RA,FALSE,ohlásit-1,FALSE,FALSE,NULL
1616147357,77d14530bad81d1071193b2388a27c6c,PennController,10,0,experiment,NULL,Selector,sentence-judgement-selector,Selection,negative,1616147317545,10_RA,FALSE,ohlásit-1,FALSE,FALSE,NULL
1616147357,77d14530bad81d1071193b2388a27c6c,PennController,10,0,experiment,NULL,PennController,11,_Trial_,End,1616147318060,10_RA,FALSE,ohlásit-1,FALSE,FALSE,NULL
1616147357,77d14530bad81d1071193b2388a27c6c,PennController,18,0,experiment,NULL,PennController,19,_Trial_,Start,1616147318064,5_RA,FALSE,vypravit-1,FALSE,FALSE,NULL
1616147357,77d14530bad81d1071193b2388a27c6c,PennController,18,0,experiment,NULL,Selector,sentence-judgement-selector,Selection,negative,1616147320852,5_RA,FALSE,vypravit-1,FALSE,FALSE,NULL
1616147357,77d14530bad81d1071193b2388a27c6c,PennController,18,0,experiment,NULL,PennController,19,_Trial_,End,1616147321360,5_RA,FALSE,vypravit-1,FALSE,FALSE,NULL
1616147357,77d14530bad81d1071193b2388a27c6c,PennController,36,0,experiment,NULL,PennController,37,_Trial_,Start,1616147321364,22_TG,TRUE,zaměřit-2,TRUE,TRUE,NULL
1616147357,77d14530bad81d1071193b2388a27c6c,PennController,36,0,experiment,NULL,Selector,sentence-judgement-selector,Selection,positive,1616147324985,22_TG,TRUE,zaměřit-2,TRUE,TRUE,NULL
1616147357,77d14530bad81d1071193b2388a27c6c,PennController,36,0,experiment,NULL,PennController,37,_Trial_,End,1616147325501,22_TG,TRUE,zaměřit-2,TRUE,TRUE,NULL
1616147357,77d14530bad81d1071193b2388a27c6c,PennController,17,0,experiment,NULL,PennController,18,_Trial_,Start,1616147325506,13_TG,TRUE,trápit-1,TRUE,TRUE,NULL
1616147357,77d14530bad81d1071193b2388a27c6c,PennController,17,0,experiment,NULL,Selector,sentence-judgement-selector,Selection,positive,1616147328543,13_TG,TRUE,trápit-1,TRUE,TRUE,NULL
1616147357,77d14530bad81d1071193b2388a27c6c,PennController,17,0,experiment,NULL,PennController,18,_Trial_,End,1616147329070,13_TG,TRUE,trápit-1,TRUE,TRUE,NULL
1616147357,77d14530bad81d1071193b2388a27c6c,PennController,14,0,experiment,NULL,PennController,15,_Trial_,Start,1616147329077,4_RA,FALSE,rozesmát-1,FALSE,FALSE,NULL
1616147357,77d14530bad81d1071193b2388a27c6c,PennController,14,0,experiment,NULL,Selector,sentence-judgement-selector,Selection,negative,1616147338884,4_RA,FALSE,rozesmát-1,FALSE,FALSE,NULL
1616147357,77d14530bad81d1071193b2388a27c6c,PennController,14,0,experiment,NULL,PennController,15,_Trial_,End,1616147339391,4_RA,FALSE,rozesmát-1,FALSE,FALSE,NULL
1616147357,77d14530bad81d1071193b2388a27c6c,PennController,28,0,experiment,NULL,PennController,29,_Trial_,Start,1616147339397,24_TG,TRUE,probudit-2,TRUE,TRUE,NULL
1616147357,77d14530bad81d1071193b2388a27c6c,PennController,28,0,experiment,NULL,Selector,sentence-judgement-selector,Selection,positive,1616147342701,24_TG,TRUE,probudit-2,TRUE,TRUE,NULL
1616147357,77d14530bad81d1071193b2388a27c6c,PennController,28,0,experiment,NULL,PennController,29,_Trial_,End,1616147343230,24_TG,TRUE,probudit-2,TRUE,TRUE,NULL
1616147357,77d14530bad81d1071193b2388a27c6c,PennController,30,0,experiment,NULL,PennController,31,_Trial_,Start,1616147343233,20_RG,TRUE,rozesmát-2,FALSE,TRUE,NULL
1616147357,77d14530bad81d1071193b2388a27c6c,PennController,30,0,experiment,NULL,Selector,sentence-judgement-selector,Selection,positive,1616147345518,20_RG,TRUE,rozesmát-2,FALSE,TRUE,NULL
1616147357,77d14530bad81d1071193b2388a27c6c,PennController,30,0,experiment,NULL,PennController,31,_Trial_,End,1616147346050,20_RG,TRUE,rozesmát-2,FALSE,TRUE,NULL
1616147357,77d14530bad81d1071193b2388a27c6c,PennController,11,0,experiment,NULL,PennController,12,_Trial_,Start,1616147346054,1_RG,TRUE,ponořit-1,FALSE,TRUE,NULL
1616147357,77d14530bad81d1071193b2388a27c6c,PennController,11,0,experiment,NULL,Selector,sentence-judgement-selector,Selection,positive,1616147348209,1_RG,TRUE,ponořit-1,FALSE,TRUE,NULL
1616147357,77d14530bad81d1071193b2388a27c6c,PennController,11,0,experiment,NULL,PennController,12,_Trial_,End,1616147348720,1_RG,TRUE,ponořit-1,FALSE,TRUE,NULL
1616147357,77d14530bad81d1071193b2388a27c6c,PennController,38,0,experiment,NULL,PennController,39,_Trial_,Start,1616147348723,23_RG,TRUE,zbavit-2,FALSE,TRUE,NULL
1616147357,77d14530bad81d1071193b2388a27c6c,PennController,38,0,experiment,NULL,Selector,sentence-judgement-selector,Selection,positive,1616147352284,23_RG,TRUE,zbavit-2,FALSE,TRUE,NULL
1616147357,77d14530bad81d1071193b2388a27c6c,PennController,38,0,experiment,NULL,PennController,39,_Trial_,End,1616147352800,23_RG,TRUE,zbavit-2,FALSE,TRUE,NULL
# Columns below this comment are as follows:
# 1. Time results were received.
# 2. MD5 hash of participant's IP address.
# 3. Controller name.
# 4. Item number.
# 5. Element number.
# 6. Type.
# 7. Group.
# 8. PennElementType.
# 9. PennElementName.
# 10. Parameter.
# 11. Value.
# 12. EventTime.
# 13. Comments.
1616147357,77d14530bad81d1071193b2388a27c6c,PennController,39,0,feedback,NULL,PennController,6,_Trial_,Start,1616147352804,NULL
1616147357,77d14530bad81d1071193b2388a27c6c,PennController,39,0,feedback,NULL,PennController,6,_Trial_,End,1616147355665,NULL
1616147357,77d14530bad81d1071193b2388a27c6c,PennController,39,0,feedback,NULL,TextInput,fbk,Final,,1616147355665,NULL
#
# Results on Friday March 19 2021 09:51:29 UTC.
# USER AGENT: Mozilla/5.0 (iPhone; CPU iPhone OS 14_4 like Mac OS X) AppleWebKit/605.1.15 (KHTML, like Gecko) Version/14.0.3 Mobile/15E148 Safari/604.1
# Design number was non-random = 90
#
# Columns below this comment are as follows:
# 1. Time results were received.
# 2. MD5 hash of participant's IP address.
# 3. Controller name.
# 4. Item number.
# 5. Element number.
# 6. Type.
# 7. Group.
# 8. PennElementType.
# 9. PennElementName.
# 10. Parameter.
# 11. Value.
# 12. EventTime.
# 13. Comments.
1616147490,240277e5dd651715586ce061d3a73320,PennController,1,0,intro,NULL,PennController,0,_Trial_,Start,1616147228299,NULL
1616147490,240277e5dd651715586ce061d3a73320,PennController,1,0,intro,NULL,Html,consent,consent,checked,1616147260613,checkbox
1616147490,240277e5dd651715586ce061d3a73320,PennController,1,0,intro,NULL,PennController,0,_Trial_,End,1616147260615,NULL
1616147490,240277e5dd651715586ce061d3a73320,PennController,2,0,form,NULL,PennController,1,_Trial_,Start,1616147260634,NULL
1616147490,240277e5dd651715586ce061d3a73320,PennController,2,0,form,NULL,Html,demographics,age,20,1616147291648,text input
1616147490,240277e5dd651715586ce061d3a73320,PennController,2,0,form,NULL,Html,demographics,readingProb,yes,1616147291649,radio button
1616147490,240277e5dd651715586ce061d3a73320,PennController,2,0,form,NULL,Html,demographics,education,highw,1616147291649,radio button
1616147490,240277e5dd651715586ce061d3a73320,PennController,2,0,form,NULL,Html,demographics,gender,žena,1616147291649,radio button
1616147490,240277e5dd651715586ce061d3a73320,PennController,2,0,form,NULL,Html,demographics,profese,Blízkovýchodní studia,1616147291649,text input
1616147490,240277e5dd651715586ce061d3a73320,PennController,2,0,form,NULL,PennController,1,_Trial_,End,1616147291650,NULL
1616147490,240277e5dd651715586ce061d3a73320,PennController,2,0,form,NULL,Html,demographics,lg,cs,1616147291650,radio button
1616147490,240277e5dd651715586ce061d3a73320,PennController,3,0,prePractice,NULL,PennController,2,_Trial_,Start,1616147291656,NULL
1616147490,240277e5dd651715586ce061d3a73320,PennController,3,0,prePractice,NULL,PennController,2,_Trial_,End,1616147348848,NULL
1616147490,240277e5dd651715586ce061d3a73320,PennController,4,0,practice1,NULL,PennController,3,_Trial_,Start,1616147348859,NULL
1616147490,240277e5dd651715586ce061d3a73320,PennController,4,0,practice1,NULL,Selector,unnamed-Selector,Selection,positive,1616147352801,NULL
1616147490,240277e5dd651715586ce061d3a73320,PennController,4,0,practice1,NULL,PennController,3,_Trial_,End,1616147353320,NULL
1616147490,240277e5dd651715586ce061d3a73320,PennController,5,0,practice2,NULL,PennController,4,_Trial_,Start,1616147353325,NULL
1616147490,240277e5dd651715586ce061d3a73320,PennController,5,0,practice2,NULL,Selector,unnamed-Selector,Selection,negative,1616147356462,NULL
1616147490,240277e5dd651715586ce061d3a73320,PennController,5,0,practice2,NULL,PennController,4,_Trial_,End,1616147356973,NULL
1616147490,240277e5dd651715586ce061d3a73320,PennController,6,0,afterPractice,NULL,PennController,5,_Trial_,Start,1616147356979,NULL
1616147490,240277e5dd651715586ce061d3a73320,PennController,6,0,afterPractice,NULL,PennController,5,_Trial_,End,1616147359516,NULL
# Columns below this comment are as follows:
# 1. Time results were received.
# 2. MD5 hash of participant's IP address.
# 3. Controller name.
# 4. Item number.
# 5. Element number.
# 6. Type.
# 7. Group.
# 8. PennElementType.
# 9. PennElementName.
# 10. Parameter.
# 11. Value.
# 12. EventTime.
# 13. Item.
# 14. Answer.correct.
# 15. ArgumentVariation.
# 16. Transitive.
# 17. Grammatical.
# 18. Comments.
1616147490,240277e5dd651715586ce061d3a73320,PennController,9,0,experiment,NULL,PennController,10,_Trial_,Start,1616147359527,11_TG,TRUE,oddělit-1,TRUE,TRUE,NULL
1616147490,240277e5dd651715586ce061d3a73320,PennController,9,0,experiment,NULL,Selector,sentence-judgement-selector,Selection,positive,1616147366293,11_TG,TRUE,oddělit-1,TRUE,TRUE,NULL
1616147490,240277e5dd651715586ce061d3a73320,PennController,9,0,experiment,NULL,PennController,10,_Trial_,End,1616147366808,11_TG,TRUE,oddělit-1,TRUE,TRUE,NULL
1616147490,240277e5dd651715586ce061d3a73320,PennController,11,0,experiment,NULL,PennController,12,_Trial_,Start,1616147366819,1_RG,TRUE,ponořit-1,FALSE,TRUE,NULL
1616147490,240277e5dd651715586ce061d3a73320,PennController,11,0,experiment,NULL,Selector,sentence-judgement-selector,Selection,positive,1616147370092,1_RG,TRUE,ponořit-1,FALSE,TRUE,NULL
1616147490,240277e5dd651715586ce061d3a73320,PennController,11,0,experiment,NULL,PennController,12,_Trial_,End,1616147370601,1_RG,TRUE,ponořit-1,FALSE,TRUE,NULL
1616147490,240277e5dd651715586ce061d3a73320,PennController,14,0,experiment,NULL,PennController,15,_Trial_,Start,1616147370611,4_RA,FALSE,rozesmát-1,FALSE,FALSE,NULL
1616147490,240277e5dd651715586ce061d3a73320,PennController,14,0,experiment,NULL,Selector,sentence-judgement-selector,Selection,negative,1616147374129,4_RA,FALSE,rozesmát-1,FALSE,FALSE,NULL
1616147490,240277e5dd651715586ce061d3a73320,PennController,14,0,experiment,NULL,PennController,15,_Trial_,End,1616147374635,4_RA,FALSE,rozesmát-1,FALSE,FALSE,NULL
1616147490,240277e5dd651715586ce061d3a73320,PennController,36,0,experiment,NULL,PennController,37,_Trial_,Start,1616147374638,22_TG,TRUE,zaměřit-2,TRUE,TRUE,NULL
1616147490,240277e5dd651715586ce061d3a73320,PennController,36,0,experiment,NULL,Selector,sentence-judgement-selector,Selection,negative,1616147379347,22_TG,TRUE,zaměřit-2,TRUE,TRUE,NULL
1616147490,240277e5dd651715586ce061d3a73320,PennController,36,0,experiment,NULL,PennController,37,_Trial_,End,1616147379855,22_TG,TRUE,zaměřit-2,TRUE,TRUE,NULL
1616147490,240277e5dd651715586ce061d3a73320,PennController,30,0,experiment,NULL,PennController,31,_Trial_,Start,1616147379865,20_RG,TRUE,rozesmát-2,FALSE,TRUE,NULL
1616147490,240277e5dd651715586ce061d3a73320,PennController,30,0,experiment,NULL,Selector,sentence-judgement-selector,Selection,positive,1616147383895,20_RG,TRUE,rozesmát-2,FALSE,TRUE,NULL
1616147490,240277e5dd651715586ce061d3a73320,PennController,30,0,experiment,NULL,PennController,31,_Trial_,End,1616147384406,20_RG,TRUE,rozesmát-2,FALSE,TRUE,NULL
1616147490,240277e5dd651715586ce061d3a73320,PennController,29,0,experiment,NULL,PennController,30,_Trial_,Start,1616147384414,19_RA,FALSE,přestěhovat-2,FALSE,FALSE,NULL
1616147490,240277e5dd651715586ce061d3a73320,PennController,29,0,experiment,NULL,Selector,sentence-judgement-selector,Selection,negative,1616147387278,19_RA,FALSE,přestěhovat-2,FALSE,FALSE,NULL
1616147490,240277e5dd651715586ce061d3a73320,PennController,29,0,experiment,NULL,PennController,30,_Trial_,End,1616147387785,19_RA,FALSE,přestěhovat-2,FALSE,FALSE,NULL
1616147490,240277e5dd651715586ce061d3a73320,PennController,32,0,experiment,NULL,PennController,33,_Trial_,Start,1616147387788,28_TG,TRUE,stáhnout-2,TRUE,TRUE,NULL
1616147490,240277e5dd651715586ce061d3a73320,PennController,32,0,experiment,NULL,Selector,sentence-judgement-selector,Selection,positive,1616147391507,28_TG,TRUE,stáhnout-2,TRUE,TRUE,NULL
1616147490,240277e5dd651715586ce061d3a73320,PennController,32,0,experiment,NULL,PennController,33,_Trial_,End,1616147392014,28_TG,TRUE,stáhnout-2,TRUE,TRUE,NULL
1616147490,240277e5dd651715586ce061d3a73320,PennController,38,0,experiment,NULL,PennController,39,_Trial_,Start,1616147392020,23_RG,TRUE,zbavit-2,FALSE,TRUE,NULL
1616147490,240277e5dd651715586ce061d3a73320,PennController,38,0,experiment,NULL,Selector,sentence-judgement-selector,Selection,positive,1616147394996,23_RG,TRUE,zbavit-2,FALSE,TRUE,NULL
1616147490,240277e5dd651715586ce061d3a73320,PennController,38,0,experiment,NULL,PennController,39,_Trial_,End,1616147395508,23_RG,TRUE,zbavit-2,FALSE,TRUE,NULL
1616147490,240277e5dd651715586ce061d3a73320,PennController,20,0,experiment,NULL,PennController,21,_Trial_,Start,1616147395516,6_TA,FALSE,zaměřit-1,TRUE,FALSE,NULL
1616147490,240277e5dd651715586ce061d3a73320,PennController,20,0,experiment,NULL,Selector,sentence-judgement-selector,Selection,negative,1616147399379,6_TA,FALSE,zaměřit-1,TRUE,FALSE,NULL
1616147490,240277e5dd651715586ce061d3a73320,PennController,20,0,experiment,NULL,PennController,21,_Trial_,End,1616147399889,6_TA,FALSE,zaměřit-1,TRUE,FALSE,NULL
1616147490,240277e5dd651715586ce061d3a73320,PennController,37,0,experiment,NULL,PennController,38,_Trial_,Start,1616147399897,31_RA,FALSE,zapsat-2,FALSE,FALSE,NULL
1616147490,240277e5dd651715586ce061d3a73320,PennController,37,0,experiment,NULL,Selector,sentence-judgement-selector,Selection,negative,1616147403412,31_RA,FALSE,zapsat-2,FALSE,FALSE,NULL
1616147490,240277e5dd651715586ce061d3a73320,PennController,37,0,experiment,NULL,PennController,38,_Trial_,End,1616147403924,31_RA,FALSE,zapsat-2,FALSE,FALSE,NULL
1616147490,240277e5dd651715586ce061d3a73320,PennController,15,0,experiment,NULL,PennController,16,_Trial_,Start,1616147403933,16_RG,TRUE,spojit-1,FALSE,TRUE,NULL
1616147490,240277e5dd651715586ce061d3a73320,PennController,15,0,experiment,NULL,Selector,sentence-judgement-selector,Selection,positive,1616147406501,16_RG,TRUE,spojit-1,FALSE,TRUE,NULL
1616147490,240277e5dd651715586ce061d3a73320,PennController,15,0,experiment,NULL,PennController,16,_Trial_,End,1616147407010,16_RG,TRUE,spojit-1,FALSE,TRUE,NULL
1616147490,240277e5dd651715586ce061d3a73320,PennController,31,0,experiment,NULL,PennController,32,_Trial_,Start,1616147407017,32_TA,FALSE,spojit-2,TRUE,FALSE,NULL
1616147490,240277e5dd651715586ce061d3a73320,PennController,31,0,experiment,NULL,Selector,sentence-judgement-selector,Selection,negative,1616147411186,32_TA,FALSE,spojit-2,TRUE,FALSE,NULL
1616147490,240277e5dd651715586ce061d3a73320,PennController,31,0,experiment,NULL,PennController,32,_Trial_,End,1616147411695,32_TA,FALSE,spojit-2,TRUE,FALSE,NULL
1616147490,240277e5dd651715586ce061d3a73320,PennController,16,0,experiment,NULL,PennController,17,_Trial_,Start,1616147411704,12_TA,FALSE,stáhnout-1,TRUE,FALSE,NULL
1616147490,240277e5dd651715586ce061d3a73320,PennController,16,0,experiment,NULL,Selector,sentence-judgement-selector,Selection,negative,1616147415417,12_TA,FALSE,stáhnout-1,TRUE,FALSE,NULL
1616147490,240277e5dd651715586ce061d3a73320,PennController,16,0,experiment,NULL,PennController,17,_Trial_,End,1616147415927,12_TA,FALSE,stáhnout-1,TRUE,FALSE,NULL
1616147490,240277e5dd651715586ce061d3a73320,PennController,12,0,experiment,NULL,PennController,13,_Trial_,Start,1616147415935,8_TA,FALSE,probudit-1,TRUE,FALSE,NULL
1616147490,240277e5dd651715586ce061d3a73320,PennController,12,0,experiment,NULL,Selector,sentence-judgement-selector,Selection,negative,1616147418869,8_TA,FALSE,probudit-1,TRUE,FALSE,NULL
1616147490,240277e5dd651715586ce061d3a73320,PennController,12,0,experiment,NULL,PennController,13,_Trial_,End,1616147419375,8_TA,FALSE,probudit-1,TRUE,FALSE,NULL
1616147490,240277e5dd651715586ce061d3a73320,PennController,18,0,experiment,NULL,PennController,19,_Trial_,Start,1616147419382,5_RA,FALSE,vypravit-1,FALSE,FALSE,NULL
1616147490,240277e5dd651715586ce061d3a73320,PennController,18,0,experiment,NULL,Selector,sentence-judgement-selector,Selection,negative,1616147422548,5_RA,FALSE,vypravit-1,FALSE,FALSE,NULL
1616147490,240277e5dd651715586ce061d3a73320,PennController,18,0,experiment,NULL,PennController,19,_Trial_,End,1616147423059,5_RA,FALSE,vypravit-1,FALSE,FALSE,NULL
1616147490,240277e5dd651715586ce061d3a73320,PennController,13,0,experiment,NULL,PennController,14,_Trial_,Start,1616147423067,3_TG,TRUE,přestěhovat-1,TRUE,TRUE,NULL
1616147490,240277e5dd651715586ce061d3a73320,PennController,13,0,experiment,NULL,Selector,sentence-judgement-selector,Selection,positive,1616147426170,3_TG,TRUE,přestěhovat-1,TRUE,TRUE,NULL
1616147490,240277e5dd651715586ce061d3a73320,PennController,13,0,experiment,NULL,PennController,14,_Trial_,End,1616147426678,3_TG,TRUE,přestěhovat-1,TRUE,TRUE,NULL
1616147490,240277e5dd651715586ce061d3a73320,PennController,33,0,experiment,NULL,PennController,34,_Trial_,Start,1616147426683,29_RA,FALSE,trápit-2,FALSE,FALSE,NULL
1616147490,240277e5dd651715586ce061d3a73320,PennController,33,0,experiment,NULL,Selector,sentence-judgement-selector,Selection,negative,1616147430467,29_RA,FALSE,trápit-2,FALSE,FALSE,NULL
1616147490,240277e5dd651715586ce061d3a73320,PennController,33,0,experiment,NULL,PennController,34,_Trial_,End,1616147430978,29_RA,FALSE,trápit-2,FALSE,FALSE,NULL
1616147490,240277e5dd651715586ce061d3a73320,PennController,34,0,experiment,NULL,PennController,35,_Trial_,Start,1616147430985,21_RG,TRUE,vypravit-2,FALSE,TRUE,NULL
1616147490,240277e5dd651715586ce061d3a73320,PennController,34,0,experiment,NULL,Selector,sentence-judgement-selector,Selection,positive,1616147433832,21_RG,TRUE,vypravit-2,FALSE,TRUE,NULL
1616147490,240277e5dd651715586ce061d3a73320,PennController,34,0,experiment,NULL,PennController,35,_Trial_,End,1616147434339,21_RG,TRUE,vypravit-2,FALSE,TRUE,NULL
1616147490,240277e5dd651715586ce061d3a73320,PennController,28,0,experiment,NULL,PennController,29,_Trial_,Start,1616147434345,24_TG,TRUE,probudit-2,TRUE,TRUE,NULL
1616147490,240277e5dd651715586ce061d3a73320,PennController,28,0,experiment,NULL,Selector,sentence-judgement-selector,Selection,positive,1616147438558,24_TG,TRUE,probudit-2,TRUE,TRUE,NULL
1616147490,240277e5dd651715586ce061d3a73320,PennController,28,0,experiment,NULL,PennController,29,_Trial_,End,1616147439069,24_TG,TRUE,probudit-2,TRUE,TRUE,NULL
1616147490,240277e5dd651715586ce061d3a73320,PennController,17,0,experiment,NULL,PennController,18,_Trial_,Start,1616147439076,13_TG,TRUE,trápit-1,TRUE,TRUE,NULL
1616147490,240277e5dd651715586ce061d3a73320,PennController,17,0,experiment,NULL,Selector,sentence-judgement-selector,Selection,positive,1616147441918,13_TG,TRUE,trápit-1,TRUE,TRUE,NULL
1616147490,240277e5dd651715586ce061d3a73320,PennController,17,0,experiment,NULL,PennController,18,_Trial_,End,1616147442429,13_TG,TRUE,trápit-1,TRUE,TRUE,NULL
1616147490,240277e5dd651715586ce061d3a73320,PennController,8,0,experiment,NULL,PennController,9,_Trial_,Start,1616147442437,2_TA,FALSE,naklonit-1,TRUE,FALSE,NULL
1616147490,240277e5dd651715586ce061d3a73320,PennController,8,0,experiment,NULL,Selector,sentence-judgement-selector,Selection,negative,1616147446431,2_TA,FALSE,naklonit-1,TRUE,FALSE,NULL
1616147490,240277e5dd651715586ce061d3a73320,PennController,8,0,experiment,NULL,PennController,9,_Trial_,End,1616147446939,2_TA,FALSE,naklonit-1,TRUE,FALSE,NULL
1616147490,240277e5dd651715586ce061d3a73320,PennController,19,0,experiment,NULL,PennController,20,_Trial_,Start,1616147446946,14_RG,TRUE,vzbudit-1,FALSE,TRUE,NULL
1616147490,240277e5dd651715586ce061d3a73320,PennController,19,0,experiment,NULL,Selector,sentence-judgement-selector,Selection,positive,1616147449256,14_RG,TRUE,vzbudit-1,FALSE,TRUE,NULL
1616147490,240277e5dd651715586ce061d3a73320,PennController,19,0,experiment,NULL,PennController,20,_Trial_,End,1616147449764,14_RG,TRUE,vzbudit-1,FALSE,TRUE,NULL
1616147490,240277e5dd651715586ce061d3a73320,PennController,25,0,experiment,NULL,PennController,26,_Trial_,Start,1616147449771,27_RA,FALSE,oddělit-2,FALSE,FALSE,NULL
1616147490,240277e5dd651715586ce061d3a73320,PennController,25,0,experiment,NULL,Selector,sentence-judgement-selector,Selection,negative,1616147453388,27_RA,FALSE,oddělit-2,FALSE,FALSE,NULL
1616147490,240277e5dd651715586ce061d3a73320,PennController,25,0,experiment,NULL,PennController,26,_Trial_,End,1616147453895,27_RA,FALSE,oddělit-2,FALSE,FALSE,NULL
1616147490,240277e5dd651715586ce061d3a73320,PennController,10,0,experiment,NULL,PennController,11,_Trial_,Start,1616147453901,10_RA,FALSE,ohlásit-1,FALSE,FALSE,NULL
1616147490,240277e5dd651715586ce061d3a73320,PennController,10,0,experiment,NULL,Selector,sentence-judgement-selector,Selection,negative,1616147457047,10_RA,FALSE,ohlásit-1,FALSE,FALSE,NULL
1616147490,240277e5dd651715586ce061d3a73320,PennController,10,0,experiment,NULL,PennController,11,_Trial_,End,1616147457556,10_RA,FALSE,ohlásit-1,FALSE,FALSE,NULL
1616147490,240277e5dd651715586ce061d3a73320,PennController,27,0,experiment,NULL,PennController,28,_Trial_,Start,1616147457562,17_TA,FALSE,ponořit-2,TRUE,FALSE,NULL
1616147490,240277e5dd651715586ce061d3a73320,PennController,27,0,experiment,NULL,Selector,sentence-judgement-selector,Selection,negative,1616147460187,17_TA,FALSE,ponořit-2,TRUE,FALSE,NULL
1616147490,240277e5dd651715586ce061d3a73320,PennController,27,0,experiment,NULL,PennController,28,_Trial_,End,1616147460693,17_TA,FALSE,ponořit-2,TRUE,FALSE,NULL
1616147490,240277e5dd651715586ce061d3a73320,PennController,24,0,experiment,NULL,PennController,25,_Trial_,Start,1616147460697,18_TG,TRUE,naklonit-2,TRUE,TRUE,NULL
1616147490,240277e5dd651715586ce061d3a73320,PennController,24,0,experiment,NULL,Selector,sentence-judgement-selector,Selection,positive,1616147463571,18_TG,TRUE,naklonit-2,TRUE,TRUE,NULL
1616147490,240277e5dd651715586ce061d3a73320,PennController,24,0,experiment,NULL,PennController,25,_Trial_,End,1616147464077,18_TG,TRUE,naklonit-2,TRUE,TRUE,NULL
1616147490,240277e5dd651715586ce061d3a73320,PennController,26,0,experiment,NULL,PennController,27,_Trial_,Start,1616147464084,26_RG,TRUE,ohlásit-2,FALSE,TRUE,NULL
1616147490,240277e5dd651715586ce061d3a73320,PennController,26,0,experiment,NULL,Selector,sentence-judgement-selector,Selection,positive,1616147467338,26_RG,TRUE,ohlásit-2,FALSE,TRUE,NULL
1616147490,240277e5dd651715586ce061d3a73320,PennController,26,0,experiment,NULL,PennController,27,_Trial_,End,1616147467846,26_RG,TRUE,ohlásit-2,FALSE,TRUE,NULL
1616147490,240277e5dd651715586ce061d3a73320,PennController,7,0,experiment,NULL,PennController,8,_Trial_,Start,1616147467853,9_RG,TRUE,hájit-1,FALSE,TRUE,NULL
1616147490,240277e5dd651715586ce061d3a73320,PennController,7,0,experiment,NULL,Selector,sentence-judgement-selector,Selection,positive,1616147470454,9_RG,TRUE,hájit-1,FALSE,TRUE,NULL
1616147490,240277e5dd651715586ce061d3a73320,PennController,7,0,experiment,NULL,PennController,8,_Trial_,End,1616147470962,9_RG,TRUE,hájit-1,FALSE,TRUE,NULL
1616147490,240277e5dd651715586ce061d3a73320,PennController,21,0,experiment,NULL,PennController,22,_Trial_,Start,1616147470972,15_TG,TRUE,zapsat-1,TRUE,TRUE,NULL
1616147490,240277e5dd651715586ce061d3a73320,PennController,21,0,experiment,NULL,Selector,sentence-judgement-selector,Selection,positive,1616147475376,15_TG,TRUE,zapsat-1,TRUE,TRUE,NULL
1616147490,240277e5dd651715586ce061d3a73320,PennController,21,0,experiment,NULL,PennController,22,_Trial_,End,1616147475881,15_TG,TRUE,zapsat-1,TRUE,TRUE,NULL
1616147490,240277e5dd651715586ce061d3a73320,PennController,35,0,experiment,NULL,PennController,36,_Trial_,Start,1616147475890,30_TA,FALSE,vzbudit-2,TRUE,FALSE,NULL
1616147490,240277e5dd651715586ce061d3a73320,PennController,35,0,experiment,NULL,Selector,sentence-judgement-selector,Selection,negative,1616147478823,30_TA,FALSE,vzbudit-2,TRUE,FALSE,NULL
1616147490,240277e5dd651715586ce061d3a73320,PennController,35,0,experiment,NULL,PennController,36,_Trial_,End,1616147479329,30_TA,FALSE,vzbudit-2,TRUE,FALSE,NULL
1616147490,240277e5dd651715586ce061d3a73320,PennController,23,0,experiment,NULL,PennController,24,_Trial_,Start,1616147479336,25_TA,FALSE,hájit-2,TRUE,FALSE,NULL
1616147490,240277e5dd651715586ce061d3a73320,PennController,23,0,experiment,NULL,Selector,sentence-judgement-selector,Selection,negative,1616147482368,25_TA,FALSE,hájit-2,TRUE,FALSE,NULL
1616147490,240277e5dd651715586ce061d3a73320,PennController,23,0,experiment,NULL,PennController,24,_Trial_,End,1616147482871,25_TA,FALSE,hájit-2,TRUE,FALSE,NULL
1616147490,240277e5dd651715586ce061d3a73320,PennController,22,0,experiment,NULL,PennController,23,_Trial_,Start,1616147482878,7_RA,FALSE,zbavit-1,FALSE,FALSE,NULL
1616147490,240277e5dd651715586ce061d3a73320,PennController,22,0,experiment,NULL,Selector,sentence-judgement-selector,Selection,negative,1616147485372,7_RA,FALSE,zbavit-1,FALSE,FALSE,NULL
1616147490,240277e5dd651715586ce061d3a73320,PennController,22,0,experiment,NULL,PennController,23,_Trial_,End,1616147485881,7_RA,FALSE,zbavit-1,FALSE,FALSE,NULL
# Columns below this comment are as follows:
# 1. Time results were received.
# 2. MD5 hash of participant's IP address.
# 3. Controller name.
# 4. Item number.
# 5. Element number.
# 6. Type.
# 7. Group.
# 8. PennElementType.
# 9. PennElementName.
# 10. Parameter.
# 11. Value.
# 12. EventTime.
# 13. Comments.
1616147490,240277e5dd651715586ce061d3a73320,PennController,39,0,feedback,NULL,PennController,6,_Trial_,Start,1616147485888,NULL
1616147490,240277e5dd651715586ce061d3a73320,PennController,39,0,feedback,NULL,PennController,6,_Trial_,End,1616147488127,NULL
1616147490,240277e5dd651715586ce061d3a73320,PennController,39,0,feedback,NULL,TextInput,fbk,Final,,1616147488127,NULL
#
# Results on Friday March 19 2021 09:56:46 UTC.
# USER AGENT: Mozilla/5.0 (Windows NT 10.0; Win64; x64) AppleWebKit/537.36 (KHTML, like Gecko) Chrome/89.0.4389.90 Safari/537.36
# Design number was non-random = 92
#
# Columns below this comment are as follows:
# 1. Time results were received.
# 2. MD5 hash of participant's IP address.
# 3. Controller name.
# 4. Item number.
# 5. Element number.
# 6. Type.
# 7. Group.
# 8. PennElementType.
# 9. PennElementName.
# 10. Parameter.
# 11. Value.
# 12. EventTime.
# 13. Comments.
1616147807,5b968a92cc573f9c677c7df3636340aa,PennController,1,0,intro,NULL,PennController,0,_Trial_,Start,1616147513696,NULL
1616147807,5b968a92cc573f9c677c7df3636340aa,PennController,1,0,intro,NULL,Html,consent,consent,checked,1616147558559,checkbox
1616147807,5b968a92cc573f9c677c7df3636340aa,PennController,1,0,intro,NULL,PennController,0,_Trial_,End,1616147558559,NULL
1616147807,5b968a92cc573f9c677c7df3636340aa,PennController,2,0,form,NULL,PennController,1,_Trial_,Start,1616147558561,NULL
1616147807,5b968a92cc573f9c677c7df3636340aa,PennController,2,0,form,NULL,Html,demographics,age,19,1616147587968,text input
1616147807,5b968a92cc573f9c677c7df3636340aa,PennController,2,0,form,NULL,Html,demographics,profese,Právo a právní věda,1616147587969,text input
1616147807,5b968a92cc573f9c677c7df3636340aa,PennController,2,0,form,NULL,Html,demographics,gender,žena,1616147587970,radio button
1616147807,5b968a92cc573f9c677c7df3636340aa,PennController,2,0,form,NULL,Html,demographics,education,highw,1616147587970,radio button
1616147807,5b968a92cc573f9c677c7df3636340aa,PennController,2,0,form,NULL,Html,demographics,readingProb,yes,1616147587970,radio button
1616147807,5b968a92cc573f9c677c7df3636340aa,PennController,2,0,form,NULL,Html,demographics,lg,cs,1616147587970,radio button
1616147807,5b968a92cc573f9c677c7df3636340aa,PennController,2,0,form,NULL,PennController,1,_Trial_,End,1616147587970,NULL
1616147807,5b968a92cc573f9c677c7df3636340aa,PennController,3,0,prePractice,NULL,PennController,2,_Trial_,Start,1616147587979,NULL
1616147807,5b968a92cc573f9c677c7df3636340aa,PennController,3,0,prePractice,NULL,PennController,2,_Trial_,End,1616147632503,NULL
1616147807,5b968a92cc573f9c677c7df3636340aa,PennController,4,0,practice1,NULL,PennController,3,_Trial_,Start,1616147632506,NULL
1616147807,5b968a92cc573f9c677c7df3636340aa,PennController,4,0,practice1,NULL,Selector,unnamed-Selector,Selection,positive,1616147638428,NULL
1616147807,5b968a92cc573f9c677c7df3636340aa,PennController,4,0,practice1,NULL,PennController,3,_Trial_,End,1616147638933,NULL
1616147807,5b968a92cc573f9c677c7df3636340aa,PennController,5,0,practice2,NULL,PennController,4,_Trial_,Start,1616147638934,NULL
1616147807,5b968a92cc573f9c677c7df3636340aa,PennController,5,0,practice2,NULL,Selector,unnamed-Selector,Selection,negative,1616147643981,NULL
1616147807,5b968a92cc573f9c677c7df3636340aa,PennController,5,0,practice2,NULL,PennController,4,_Trial_,End,1616147644483,NULL
1616147807,5b968a92cc573f9c677c7df3636340aa,PennController,6,0,afterPractice,NULL,PennController,5,_Trial_,Start,1616147644484,NULL
1616147807,5b968a92cc573f9c677c7df3636340aa,PennController,6,0,afterPractice,NULL,PennController,5,_Trial_,End,1616147650522,NULL
# Columns below this comment are as follows:
# 1. Time results were received.
# 2. MD5 hash of participant's IP address.
# 3. Controller name.
# 4. Item number.
# 5. Element number.
# 6. Type.
# 7. Group.
# 8. PennElementType.
# 9. PennElementName.
# 10. Parameter.
# 11. Value.
# 12. EventTime.
# 13. Item.
# 14. Answer.correct.
# 15. ArgumentVariation.
# 16. Transitive.
# 17. Grammatical.
# 18. Comments.
1616147807,5b968a92cc573f9c677c7df3636340aa,PennController,27,0,experiment,NULL,PennController,28,_Trial_,Start,1616147650523,17_RA,FALSE,ponořit-2,FALSE,FALSE,NULL
1616147807,5b968a92cc573f9c677c7df3636340aa,PennController,27,0,experiment,NULL,Selector,sentence-judgement-selector,Selection,negative,1616147654156,17_RA,FALSE,ponořit-2,FALSE,FALSE,NULL
1616147807,5b968a92cc573f9c677c7df3636340aa,PennController,27,0,experiment,NULL,PennController,28,_Trial_,End,1616147654656,17_RA,FALSE,ponořit-2,FALSE,FALSE,NULL
1616147807,5b968a92cc573f9c677c7df3636340aa,PennController,38,0,experiment,NULL,PennController,39,_Trial_,Start,1616147654657,23_TG,TRUE,zbavit-2,TRUE,TRUE,NULL
1616147807,5b968a92cc573f9c677c7df3636340aa,PennController,38,0,experiment,NULL,Selector,sentence-judgement-selector,Selection,positive,1616147658940,23_TG,TRUE,zbavit-2,TRUE,TRUE,NULL
1616147807,5b968a92cc573f9c677c7df3636340aa,PennController,38,0,experiment,NULL,PennController,39,_Trial_,End,1616147659443,23_TG,TRUE,zbavit-2,TRUE,TRUE,NULL
1616147807,5b968a92cc573f9c677c7df3636340aa,PennController,31,0,experiment,NULL,PennController,32,_Trial_,Start,1616147659444,32_RA,FALSE,spojit-2,FALSE,FALSE,NULL
1616147807,5b968a92cc573f9c677c7df3636340aa,PennController,31,0,experiment,NULL,Selector,sentence-judgement-selector,Selection,negative,1616147664649,32_RA,FALSE,spojit-2,FALSE,FALSE,NULL
1616147807,5b968a92cc573f9c677c7df3636340aa,PennController,31,0,experiment,NULL,PennController,32,_Trial_,End,1616147665151,32_RA,FALSE,spojit-2,FALSE,FALSE,NULL
1616147807,5b968a92cc573f9c677c7df3636340aa,PennController,29,0,experiment,NULL,PennController,30,_Trial_,Start,1616147665152,19_TA,FALSE,přestěhovat-2,TRUE,FALSE,NULL
1616147807,5b968a92cc573f9c677c7df3636340aa,PennController,29,0,experiment,NULL,Selector,sentence-judgement-selector,Selection,negative,1616147669904,19_TA,FALSE,přestěhovat-2,TRUE,FALSE,NULL
1616147807,5b968a92cc573f9c677c7df3636340aa,PennController,29,0,experiment,NULL,PennController,30,_Trial_,End,1616147670407,19_TA,FALSE,přestěhovat-2,TRUE,FALSE,NULL
1616147807,5b968a92cc573f9c677c7df3636340aa,PennController,20,0,experiment,NULL,PennController,21,_Trial_,Start,1616147670408,6_RA,FALSE,zaměřit-1,FALSE,FALSE,NULL
1616147807,5b968a92cc573f9c677c7df3636340aa,PennController,20,0,experiment,NULL,Selector,sentence-judgement-selector,Selection,negative,1616147674405,6_RA,FALSE,zaměřit-1,FALSE,FALSE,NULL
1616147807,5b968a92cc573f9c677c7df3636340aa,PennController,20,0,experiment,NULL,PennController,21,_Trial_,End,1616147674910,6_RA,FALSE,zaměřit-1,FALSE,FALSE,NULL
1616147807,5b968a92cc573f9c677c7df3636340aa,PennController,11,0,experiment,NULL,PennController,12,_Trial_,Start,1616147674911,1_TG,TRUE,ponořit-1,TRUE,TRUE,NULL
1616147807,5b968a92cc573f9c677c7df3636340aa,PennController,11,0,experiment,NULL,Selector,sentence-judgement-selector,Selection,positive,1616147678795,1_TG,TRUE,ponořit-1,TRUE,TRUE,NULL
1616147807,5b968a92cc573f9c677c7df3636340aa,PennController,11,0,experiment,NULL,PennController,12,_Trial_,End,1616147679296,1_TG,TRUE,ponořit-1,TRUE,TRUE,NULL
1616147807,5b968a92cc573f9c677c7df3636340aa,PennController,37,0,experiment,NULL,PennController,38,_Trial_,Start,1616147679297,31_TA,FALSE,zapsat-2,TRUE,FALSE,NULL
1616147807,5b968a92cc573f9c677c7df3636340aa,PennController,37,0,experiment,NULL,Selector,sentence-judgement-selector,Selection,negative,1616147683568,31_TA,FALSE,zapsat-2,TRUE,FALSE,NULL
1616147807,5b968a92cc573f9c677c7df3636340aa,PennController,37,0,experiment,NULL,PennController,38,_Trial_,End,1616147684070,31_TA,FALSE,zapsat-2,TRUE,FALSE,NULL
1616147807,5b968a92cc573f9c677c7df3636340aa,PennController,24,0,experiment,NULL,PennController,25,_Trial_,Start,1616147684071,18_RG,TRUE,naklonit-2,FALSE,TRUE,NULL
1616147807,5b968a92cc573f9c677c7df3636340aa,PennController,24,0,experiment,NULL,Selector,sentence-judgement-selector,Selection,positive,1616147687472,18_RG,TRUE,naklonit-2,FALSE,TRUE,NULL
1616147807,5b968a92cc573f9c677c7df3636340aa,PennController,24,0,experiment,NULL,PennController,25,_Trial_,End,1616147687975,18_RG,TRUE,naklonit-2,FALSE,TRUE,NULL
1616147807,5b968a92cc573f9c677c7df3636340aa,PennController,28,0,experiment,NULL,PennController,29,_Trial_,Start,1616147687976,24_RG,TRUE,probudit-2,FALSE,TRUE,NULL
1616147807,5b968a92cc573f9c677c7df3636340aa,PennController,28,0,experiment,NULL,Selector,sentence-judgement-selector,Selection,positive,1616147690657,24_RG,TRUE,probudit-2,FALSE,TRUE,NULL
1616147807,5b968a92cc573f9c677c7df3636340aa,PennController,28,0,experiment,NULL,PennController,29,_Trial_,End,1616147691161,24_RG,TRUE,probudit-2,FALSE,TRUE,NULL
1616147807,5b968a92cc573f9c677c7df3636340aa,PennController,13,0,experiment,NULL,PennController,14,_Trial_,Start,1616147691161,3_RG,TRUE,přestěhovat-1,FALSE,TRUE,NULL
1616147807,5b968a92cc573f9c677c7df3636340aa,PennController,13,0,experiment,NULL,Selector,sentence-judgement-selector,Selection,positive,1616147693581,3_RG,TRUE,přestěhovat-1,FALSE,TRUE,NULL
1616147807,5b968a92cc573f9c677c7df3636340aa,PennController,13,0,experiment,NULL,PennController,14,_Trial_,End,1616147694081,3_RG,TRUE,přestěhovat-1,FALSE,TRUE,NULL
1616147807,5b968a92cc573f9c677c7df3636340aa,PennController,21,0,experiment,NULL,PennController,22,_Trial_,Start,1616147694082,15_RG,TRUE,zapsat-1,FALSE,TRUE,NULL
1616147807,5b968a92cc573f9c677c7df3636340aa,PennController,21,0,experiment,NULL,Selector,sentence-judgement-selector,Selection,positive,1616147698023,15_RG,TRUE,zapsat-1,FALSE,TRUE,NULL
1616147807,5b968a92cc573f9c677c7df3636340aa,PennController,21,0,experiment,NULL,PennController,22,_Trial_,End,1616147698528,15_RG,TRUE,zapsat-1,FALSE,TRUE,NULL
1616147807,5b968a92cc573f9c677c7df3636340aa,PennController,22,0,experiment,NULL,PennController,23,_Trial_,Start,1616147698529,7_TA,FALSE,zbavit-1,TRUE,FALSE,NULL
1616147807,5b968a92cc573f9c677c7df3636340aa,PennController,22,0,experiment,NULL,Selector,sentence-judgement-selector,Selection,negative,1616147701980,7_TA,FALSE,zbavit-1,TRUE,FALSE,NULL
1616147807,5b968a92cc573f9c677c7df3636340aa,PennController,22,0,experiment,NULL,PennController,23,_Trial_,End,1616147702482,7_TA,FALSE,zbavit-1,TRUE,FALSE,NULL
1616147807,5b968a92cc573f9c677c7df3636340aa,PennController,34,0,experiment,NULL,PennController,35,_Trial_,Start,1616147702484,21_TG,TRUE,vypravit-2,TRUE,TRUE,NULL
1616147807,5b968a92cc573f9c677c7df3636340aa,PennController,34,0,experiment,NULL,Selector,sentence-judgement-selector,Selection,positive,1616147707541,21_TG,TRUE,vypravit-2,TRUE,TRUE,NULL
1616147807,5b968a92cc573f9c677c7df3636340aa,PennController,34,0,experiment,NULL,PennController,35,_Trial_,End,1616147708043,21_TG,TRUE,vypravit-2,TRUE,TRUE,NULL
1616147807,5b968a92cc573f9c677c7df3636340aa,PennController,30,0,experiment,NULL,PennController,31,_Trial_,Start,1616147708045,20_TG,TRUE,rozesmát-2,TRUE,TRUE,NULL
1616147807,5b968a92cc573f9c677c7df3636340aa,PennController,30,0,experiment,NULL,Selector,sentence-judgement-selector,Selection,positive,1616147711422,20_TG,TRUE,rozesmát-2,TRUE,TRUE,NULL
1616147807,5b968a92cc573f9c677c7df3636340aa,PennController,30,0,experiment,NULL,PennController,31,_Trial_,End,1616147711928,20_TG,TRUE,rozesmát-2,TRUE,TRUE,NULL
1616147807,5b968a92cc573f9c677c7df3636340aa,PennController,8,0,experiment,NULL,PennController,9,_Trial_,Start,1616147711930,2_RA,FALSE,naklonit-1,FALSE,FALSE,NULL
1616147807,5b968a92cc573f9c677c7df3636340aa,PennController,8,0,experiment,NULL,Selector,sentence-judgement-selector,Selection,negative,1616147714575,2_RA,FALSE,naklonit-1,FALSE,FALSE,NULL
1616147807,5b968a92cc573f9c677c7df3636340aa,PennController,8,0,experiment,NULL,PennController,9,_Trial_,End,1616147715078,2_RA,FALSE,naklonit-1,FALSE,FALSE,NULL
1616147807,5b968a92cc573f9c677c7df3636340aa,PennController,10,0,experiment,NULL,PennController,11,_Trial_,Start,1616147715080,10_TA,FALSE,ohlásit-1,TRUE,FALSE,NULL
1616147807,5b968a92cc573f9c677c7df3636340aa,PennController,10,0,experiment,NULL,Selector,sentence-judgement-selector,Selection,negative,1616147721034,10_TA,FALSE,ohlásit-1,TRUE,FALSE,NULL
1616147807,5b968a92cc573f9c677c7df3636340aa,PennController,10,0,experiment,NULL,PennController,11,_Trial_,End,1616147721537,10_TA,FALSE,ohlásit-1,TRUE,FALSE,NULL
1616147807,5b968a92cc573f9c677c7df3636340aa,PennController,19,0,experiment,NULL,PennController,20,_Trial_,Start,1616147721538,14_TG,TRUE,vzbudit-1,TRUE,TRUE,NULL
1616147807,5b968a92cc573f9c677c7df3636340aa,PennController,19,0,experiment,NULL,Selector,sentence-judgement-selector,Selection,positive,1616147725197,14_TG,TRUE,vzbudit-1,TRUE,TRUE,NULL
1616147807,5b968a92cc573f9c677c7df3636340aa,PennController,19,0,experiment,NULL,PennController,20,_Trial_,End,1616147725700,14_TG,TRUE,vzbudit-1,TRUE,TRUE,NULL
1616147807,5b968a92cc573f9c677c7df3636340aa,PennController,26,0,experiment,NULL,PennController,27,_Trial_,Start,1616147725701,26_TG,TRUE,ohlásit-2,TRUE,TRUE,NULL
1616147807,5b968a92cc573f9c677c7df3636340aa,PennController,26,0,experiment,NULL,Selector,sentence-judgement-selector,Selection,positive,1616147731159,26_TG,TRUE,ohlásit-2,TRUE,TRUE,NULL
1616147807,5b968a92cc573f9c677c7df3636340aa,PennController,26,0,experiment,NULL,PennController,27,_Trial_,End,1616147731665,26_TG,TRUE,ohlásit-2,TRUE,TRUE,NULL
1616147807,5b968a92cc573f9c677c7df3636340aa,PennController,15,0,experiment,NULL,PennController,16,_Trial_,Start,1616147731667,16_TG,TRUE,spojit-1,TRUE,TRUE,NULL
1616147807,5b968a92cc573f9c677c7df3636340aa,PennController,15,0,experiment,NULL,Selector,sentence-judgement-selector,Selection,positive,1616147734561,16_TG,TRUE,spojit-1,TRUE,TRUE,NULL
1616147807,5b968a92cc573f9c677c7df3636340aa,PennController,15,0,experiment,NULL,PennController,16,_Trial_,End,1616147735064,16_TG,TRUE,spojit-1,TRUE,TRUE,NULL
1616147807,5b968a92cc573f9c677c7df3636340aa,PennController,33,0,experiment,NULL,PennController,34,_Trial_,Start,1616147735065,29_TA,FALSE,trápit-2,TRUE,FALSE,NULL
1616147807,5b968a92cc573f9c677c7df3636340aa,PennController,33,0,experiment,NULL,Selector,sentence-judgement-selector,Selection,negative,1616147741507,29_TA,FALSE,trápit-2,TRUE,FALSE,NULL
1616147807,5b968a92cc573f9c677c7df3636340aa,PennController,33,0,experiment,NULL,PennController,34,_Trial_,End,1616147742009,29_TA,FALSE,trápit-2,TRUE,FALSE,NULL
1616147807,5b968a92cc573f9c677c7df3636340aa,PennController,17,0,experiment,NULL,PennController,18,_Trial_,Start,1616147742010,13_RG,TRUE,trápit-1,FALSE,TRUE,NULL
1616147807,5b968a92cc573f9c677c7df3636340aa,PennController,17,0,experiment,NULL,Selector,sentence-judgement-selector,Selection,positive,1616147744639,13_RG,TRUE,trápit-1,FALSE,TRUE,NULL
1616147807,5b968a92cc573f9c677c7df3636340aa,PennController,17,0,experiment,NULL,PennController,18,_Trial_,End,1616147745144,13_RG,TRUE,trápit-1,FALSE,TRUE,NULL
1616147807,5b968a92cc573f9c677c7df3636340aa,PennController,23,0,experiment,NULL,PennController,24,_Trial_,Start,1616147745145,25_RA,FALSE,hájit-2,FALSE,FALSE,NULL
1616147807,5b968a92cc573f9c677c7df3636340aa,PennController,23,0,experiment,NULL,Selector,sentence-judgement-selector,Selection,negative,1616147748236,25_RA,FALSE,hájit-2,FALSE,FALSE,NULL
1616147807,5b968a92cc573f9c677c7df3636340aa,PennController,23,0,experiment,NULL,PennController,24,_Trial_,End,1616147748741,25_RA,FALSE,hájit-2,FALSE,FALSE,NULL
1616147807,5b968a92cc573f9c677c7df3636340aa,PennController,7,0,experiment,NULL,PennController,8,_Trial_,Start,1616147748741,9_TG,TRUE,hájit-1,TRUE,TRUE,NULL
1616147807,5b968a92cc573f9c677c7df3636340aa,PennController,7,0,experiment,NULL,Selector,sentence-judgement-selector,Selection,positive,1616147753189,9_TG,TRUE,hájit-1,TRUE,TRUE,NULL
1616147807,5b968a92cc573f9c677c7df3636340aa,PennController,7,0,experiment,NULL,PennController,8,_Trial_,End,1616147753691,9_TG,TRUE,hájit-1,TRUE,TRUE,NULL
1616147807,5b968a92cc573f9c677c7df3636340aa,PennController,32,0,experiment,NULL,PennController,33,_Trial_,Start,1616147753692,28_RG,TRUE,stáhnout-2,FALSE,TRUE,NULL
1616147807,5b968a92cc573f9c677c7df3636340aa,PennController,32,0,experiment,NULL,Selector,sentence-judgement-selector,Selection,positive,1616147756389,28_RG,TRUE,stáhnout-2,FALSE,TRUE,NULL
1616147807,5b968a92cc573f9c677c7df3636340aa,PennController,32,0,experiment,NULL,PennController,33,_Trial_,End,1616147756893,28_RG,TRUE,stáhnout-2,FALSE,TRUE,NULL
1616147807,5b968a92cc573f9c677c7df3636340aa,PennController,18,0,experiment,NULL,PennController,19,_Trial_,Start,1616147756896,5_TA,FALSE,vypravit-1,TRUE,FALSE,NULL
1616147807,5b968a92cc573f9c677c7df3636340aa,PennController,18,0,experiment,NULL,Selector,sentence-judgement-selector,Selection,negative,1616147760304,5_TA,FALSE,vypravit-1,TRUE,FALSE,NULL
1616147807,5b968a92cc573f9c677c7df3636340aa,PennController,18,0,experiment,NULL,PennController,19,_Trial_,End,1616147760809,5_TA,FALSE,vypravit-1,TRUE,FALSE,NULL
1616147807,5b968a92cc573f9c677c7df3636340aa,PennController,16,0,experiment,NULL,PennController,17,_Trial_,Start,1616147760811,12_RA,FALSE,stáhnout-1,FALSE,FALSE,NULL
1616147807,5b968a92cc573f9c677c7df3636340aa,PennController,16,0,experiment,NULL,Selector,sentence-judgement-selector,Selection,negative,1616147767336,12_RA,FALSE,stáhnout-1,FALSE,FALSE,NULL
1616147807,5b968a92cc573f9c677c7df3636340aa,PennController,16,0,experiment,NULL,PennController,17,_Trial_,End,1616147767840,12_RA,FALSE,stáhnout-1,FALSE,FALSE,NULL
1616147807,5b968a92cc573f9c677c7df3636340aa,PennController,36,0,experiment,NULL,PennController,37,_Trial_,Start,1616147767843,22_RG,TRUE,zaměřit-2,FALSE,TRUE,NULL
1616147807,5b968a92cc573f9c677c7df3636340aa,PennController,36,0,experiment,NULL,Selector,sentence-judgement-selector,Selection,positive,1616147771480,22_RG,TRUE,zaměřit-2,FALSE,TRUE,NULL
1616147807,5b968a92cc573f9c677c7df3636340aa,PennController,36,0,experiment,NULL,PennController,37,_Trial_,End,1616147771982,22_RG,TRUE,zaměřit-2,FALSE,TRUE,NULL
1616147807,5b968a92cc573f9c677c7df3636340aa,PennController,14,0,experiment,NULL,PennController,15,_Trial_,Start,1616147771983,4_TA,FALSE,rozesmát-1,TRUE,FALSE,NULL
1616147807,5b968a92cc573f9c677c7df3636340aa,PennController,14,0,experiment,NULL,Selector,sentence-judgement-selector,Selection,negative,1616147776648,4_TA,FALSE,rozesmát-1,TRUE,FALSE,NULL
1616147807,5b968a92cc573f9c677c7df3636340aa,PennController,14,0,experiment,NULL,PennController,15,_Trial_,End,1616147777152,4_TA,FALSE,rozesmát-1,TRUE,FALSE,NULL
1616147807,5b968a92cc573f9c677c7df3636340aa,PennController,12,0,experiment,NULL,PennController,13,_Trial_,Start,1616147777153,8_RA,FALSE,probudit-1,FALSE,FALSE,NULL
1616147807,5b968a92cc573f9c677c7df3636340aa,PennController,12,0,experiment,NULL,Selector,sentence-judgement-selector,Selection,negative,1616147784026,8_RA,FALSE,probudit-1,FALSE,FALSE,NULL
1616147807,5b968a92cc573f9c677c7df3636340aa,PennController,12,0,experiment,NULL,PennController,13,_Trial_,End,1616147784532,8_RA,FALSE,probudit-1,FALSE,FALSE,NULL
1616147807,5b968a92cc573f9c677c7df3636340aa,PennController,35,0,experiment,NULL,PennController,36,_Trial_,Start,1616147784533,30_RA,FALSE,vzbudit-2,FALSE,FALSE,NULL
1616147807,5b968a92cc573f9c677c7df3636340aa,PennController,35,0,experiment,NULL,Selector,sentence-judgement-selector,Selection,negative,1616147787680,30_RA,FALSE,vzbudit-2,FALSE,FALSE,NULL
1616147807,5b968a92cc573f9c677c7df3636340aa,PennController,35,0,experiment,NULL,PennController,36,_Trial_,End,1616147788180,30_RA,FALSE,vzbudit-2,FALSE,FALSE,NULL
1616147807,5b968a92cc573f9c677c7df3636340aa,PennController,25,0,experiment,NULL,PennController,26,_Trial_,Start,1616147788181,27_TA,FALSE,oddělit-2,TRUE,FALSE,NULL
1616147807,5b968a92cc573f9c677c7df3636340aa,PennController,25,0,experiment,NULL,Selector,sentence-judgement-selector,Selection,negative,1616147792913,27_TA,FALSE,oddělit-2,TRUE,FALSE,NULL
1616147807,5b968a92cc573f9c677c7df3636340aa,PennController,25,0,experiment,NULL,PennController,26,_Trial_,End,1616147793417,27_TA,FALSE,oddělit-2,TRUE,FALSE,NULL
1616147807,5b968a92cc573f9c677c7df3636340aa,PennController,9,0,experiment,NULL,PennController,10,_Trial_,Start,1616147793419,11_RG,TRUE,oddělit-1,FALSE,TRUE,NULL
1616147807,5b968a92cc573f9c677c7df3636340aa,PennController,9,0,experiment,NULL,Selector,sentence-judgement-selector,Selection,positive,1616147797684,11_RG,TRUE,oddělit-1,FALSE,TRUE,NULL
1616147807,5b968a92cc573f9c677c7df3636340aa,PennController,9,0,experiment,NULL,PennController,10,_Trial_,End,1616147798187,11_RG,TRUE,oddělit-1,FALSE,TRUE,NULL
# Columns below this comment are as follows:
# 1. Time results were received.
# 2. MD5 hash of participant's IP address.
# 3. Controller name.
# 4. Item number.
# 5. Element number.
# 6. Type.
# 7. Group.
# 8. PennElementType.
# 9. PennElementName.
# 10. Parameter.
# 11. Value.
# 12. EventTime.
# 13. Comments.
1616147807,5b968a92cc573f9c677c7df3636340aa,PennController,39,0,feedback,NULL,PennController,6,_Trial_,Start,1616147798188,NULL
1616147807,5b968a92cc573f9c677c7df3636340aa,PennController,39,0,feedback,NULL,TextInput,fbk,Final,,1616147806679,NULL
1616147807,5b968a92cc573f9c677c7df3636340aa,PennController,39,0,feedback,NULL,PennController,6,_Trial_,End,1616147806679,NULL
#
# Results on Friday March 19 2021 10:02:32 UTC.
# USER AGENT: Mozilla/5.0 (Windows NT 10.0; Win64; x64) AppleWebKit/537.36 (KHTML, like Gecko) Chrome/89.0.4389.90 Safari/537.36 Edg/89.0.774.54
# Design number was non-random = 91
#
# Columns below this comment are as follows:
# 1. Time results were received.
# 2. MD5 hash of participant's IP address.
# 3. Controller name.
# 4. Item number.
# 5. Element number.
# 6. Type.
# 7. Group.
# 8. PennElementType.
# 9. PennElementName.
# 10. Parameter.
# 11. Value.
# 12. EventTime.
# 13. Comments.
1616148152,4813829e4e70c5bc4aab6b936d4acf36,PennController,1,0,intro,NULL,PennController,0,_Trial_,Start,1616147465059,NULL
1616148152,4813829e4e70c5bc4aab6b936d4acf36,PennController,1,0,intro,NULL,Html,consent,consent,checked,1616147469800,checkbox
1616148152,4813829e4e70c5bc4aab6b936d4acf36,PennController,1,0,intro,NULL,PennController,0,_Trial_,End,1616147469801,NULL
1616148152,4813829e4e70c5bc4aab6b936d4acf36,PennController,2,0,form,NULL,PennController,1,_Trial_,Start,1616147469803,NULL
1616148152,4813829e4e70c5bc4aab6b936d4acf36,PennController,2,0,form,NULL,Html,demographics,age,20,1616147520036,text input
1616148152,4813829e4e70c5bc4aab6b936d4acf36,PennController,2,0,form,NULL,Html,demographics,profese,Obecná matematika,1616147520036,text input
1616148152,4813829e4e70c5bc4aab6b936d4acf36,PennController,2,0,form,NULL,Html,demographics,gender,M,1616147520037,radio button
1616148152,4813829e4e70c5bc4aab6b936d4acf36,PennController,2,0,form,NULL,Html,demographics,education,highw,1616147520037,radio button
1616148152,4813829e4e70c5bc4aab6b936d4acf36,PennController,2,0,form,NULL,Html,demographics,readingProb,no,1616147520037,radio button
1616148152,4813829e4e70c5bc4aab6b936d4acf36,PennController,2,0,form,NULL,Html,demographics,lg,cs,1616147520037,radio button
1616148152,4813829e4e70c5bc4aab6b936d4acf36,PennController,2,0,form,NULL,PennController,1,_Trial_,End,1616147520037,NULL
1616148152,4813829e4e70c5bc4aab6b936d4acf36,PennController,3,0,prePractice,NULL,PennController,2,_Trial_,Start,1616147520038,NULL
1616148152,4813829e4e70c5bc4aab6b936d4acf36,PennController,3,0,prePractice,NULL,PennController,2,_Trial_,End,1616147522546,NULL
1616148152,4813829e4e70c5bc4aab6b936d4acf36,PennController,4,0,practice1,NULL,PennController,3,_Trial_,Start,1616147522549,NULL
1616148152,4813829e4e70c5bc4aab6b936d4acf36,PennController,4,0,practice1,NULL,Selector,unnamed-Selector,Selection,positive,1616147530531,NULL
1616148152,4813829e4e70c5bc4aab6b936d4acf36,PennController,4,0,practice1,NULL,PennController,3,_Trial_,End,1616147531039,NULL
1616148152,4813829e4e70c5bc4aab6b936d4acf36,PennController,5,0,practice2,NULL,PennController,4,_Trial_,Start,1616147531042,NULL
1616148152,4813829e4e70c5bc4aab6b936d4acf36,PennController,5,0,practice2,NULL,Selector,unnamed-Selector,Selection,negative,1616147565747,NULL
1616148152,4813829e4e70c5bc4aab6b936d4acf36,PennController,5,0,practice2,NULL,PennController,4,_Trial_,End,1616147566253,NULL
1616148152,4813829e4e70c5bc4aab6b936d4acf36,PennController,6,0,afterPractice,NULL,PennController,5,_Trial_,Start,1616147566254,NULL
1616148152,4813829e4e70c5bc4aab6b936d4acf36,PennController,6,0,afterPractice,NULL,PennController,5,_Trial_,End,1616147661606,NULL
# Columns below this comment are as follows:
# 1. Time results were received.
# 2. MD5 hash of participant's IP address.
# 3. Controller name.
# 4. Item number.
# 5. Element number.
# 6. Type.
# 7. Group.
# 8. PennElementType.
# 9. PennElementName.
# 10. Parameter.
# 11. Value.
# 12. EventTime.
# 13. Item.
# 14. Answer.correct.
# 15. ArgumentVariation.
# 16. Transitive.
# 17. Grammatical.
# 18. Comments.
1616148152,4813829e4e70c5bc4aab6b936d4acf36,PennController,7,0,experiment,NULL,PennController,8,_Trial_,Start,1616147661607,9_RA,FALSE,hájit-1,FALSE,FALSE,NULL
1616148152,4813829e4e70c5bc4aab6b936d4acf36,PennController,7,0,experiment,NULL,Selector,sentence-judgement-selector,Selection,negative,1616147664433,9_RA,FALSE,hájit-1,FALSE,FALSE,NULL
1616148152,4813829e4e70c5bc4aab6b936d4acf36,PennController,7,0,experiment,NULL,PennController,8,_Trial_,End,1616147664936,9_RA,FALSE,hájit-1,FALSE,FALSE,NULL
1616148152,4813829e4e70c5bc4aab6b936d4acf36,PennController,8,0,experiment,NULL,PennController,9,_Trial_,Start,1616147664939,2_RG,TRUE,naklonit-1,FALSE,TRUE,NULL
1616148152,4813829e4e70c5bc4aab6b936d4acf36,PennController,8,0,experiment,NULL,Selector,sentence-judgement-selector,Selection,positive,1616147667765,2_RG,TRUE,naklonit-1,FALSE,TRUE,NULL
1616148152,4813829e4e70c5bc4aab6b936d4acf36,PennController,8,0,experiment,NULL,PennController,9,_Trial_,End,1616147668268,2_RG,TRUE,naklonit-1,FALSE,TRUE,NULL
1616148152,4813829e4e70c5bc4aab6b936d4acf36,PennController,21,0,experiment,NULL,PennController,22,_Trial_,Start,1616147668271,15_TA,FALSE,zapsat-1,TRUE,FALSE,NULL
1616148152,4813829e4e70c5bc4aab6b936d4acf36,PennController,21,0,experiment,NULL,Selector,sentence-judgement-selector,Selection,negative,1616147674145,15_TA,FALSE,zapsat-1,TRUE,FALSE,NULL
1616148152,4813829e4e70c5bc4aab6b936d4acf36,PennController,21,0,experiment,NULL,PennController,22,_Trial_,End,1616147674649,15_TA,FALSE,zapsat-1,TRUE,FALSE,NULL
1616148152,4813829e4e70c5bc4aab6b936d4acf36,PennController,36,0,experiment,NULL,PennController,37,_Trial_,Start,1616147674652,22_TA,FALSE,zaměřit-2,TRUE,FALSE,NULL
1616148152,4813829e4e70c5bc4aab6b936d4acf36,PennController,36,0,experiment,NULL,Selector,sentence-judgement-selector,Selection,negative,1616147678241,22_TA,FALSE,zaměřit-2,TRUE,FALSE,NULL
1616148152,4813829e4e70c5bc4aab6b936d4acf36,PennController,36,0,experiment,NULL,PennController,37,_Trial_,End,1616147678748,22_TA,FALSE,zaměřit-2,TRUE,FALSE,NULL
1616148152,4813829e4e70c5bc4aab6b936d4acf36,PennController,33,0,experiment,NULL,PennController,34,_Trial_,Start,1616147678750,29_TG,TRUE,trápit-2,TRUE,TRUE,NULL
1616148152,4813829e4e70c5bc4aab6b936d4acf36,PennController,33,0,experiment,NULL,Selector,sentence-judgement-selector,Selection,negative,1616147684329,29_TG,TRUE,trápit-2,TRUE,TRUE,NULL
1616148152,4813829e4e70c5bc4aab6b936d4acf36,PennController,33,0,experiment,NULL,PennController,34,_Trial_,End,1616147684832,29_TG,TRUE,trápit-2,TRUE,TRUE,NULL
1616148152,4813829e4e70c5bc4aab6b936d4acf36,PennController,30,0,experiment,NULL,PennController,31,_Trial_,Start,1616147684835,20_RA,FALSE,rozesmát-2,FALSE,FALSE,NULL
1616148152,4813829e4e70c5bc4aab6b936d4acf36,PennController,30,0,experiment,NULL,Selector,sentence-judgement-selector,Selection,negative,1616147692801,20_RA,FALSE,rozesmát-2,FALSE,FALSE,NULL
1616148152,4813829e4e70c5bc4aab6b936d4acf36,PennController,30,0,experiment,NULL,PennController,31,_Trial_,End,1616147693307,20_RA,FALSE,rozesmát-2,FALSE,FALSE,NULL
1616148152,4813829e4e70c5bc4aab6b936d4acf36,PennController,31,0,experiment,NULL,PennController,32,_Trial_,Start,1616147693310,32_RG,TRUE,spojit-2,FALSE,TRUE,NULL
1616148152,4813829e4e70c5bc4aab6b936d4acf36,PennController,31,0,experiment,NULL,Selector,sentence-judgement-selector,Selection,positive,1616147698241,32_RG,TRUE,spojit-2,FALSE,TRUE,NULL
1616148152,4813829e4e70c5bc4aab6b936d4acf36,PennController,31,0,experiment,NULL,PennController,32,_Trial_,End,1616147698745,32_RG,TRUE,spojit-2,FALSE,TRUE,NULL
1616148152,4813829e4e70c5bc4aab6b936d4acf36,PennController,27,0,experiment,NULL,PennController,28,_Trial_,Start,1616147698747,17_RG,TRUE,ponořit-2,FALSE,TRUE,NULL
1616148152,4813829e4e70c5bc4aab6b936d4acf36,PennController,27,0,experiment,NULL,Selector,sentence-judgement-selector,Selection,positive,1616147702521,17_RG,TRUE,ponořit-2,FALSE,TRUE,NULL
1616148152,4813829e4e70c5bc4aab6b936d4acf36,PennController,27,0,experiment,NULL,PennController,28,_Trial_,End,1616147703024,17_RG,TRUE,ponořit-2,FALSE,TRUE,NULL
1616148152,4813829e4e70c5bc4aab6b936d4acf36,PennController,13,0,experiment,NULL,PennController,14,_Trial_,Start,1616147703027,3_TA,FALSE,přestěhovat-1,TRUE,FALSE,NULL
1616148152,4813829e4e70c5bc4aab6b936d4acf36,PennController,13,0,experiment,NULL,Selector,sentence-judgement-selector,Selection,negative,1616147711937,3_TA,FALSE,přestěhovat-1,TRUE,FALSE,NULL
1616148152,4813829e4e70c5bc4aab6b936d4acf36,PennController,13,0,experiment,NULL,PennController,14,_Trial_,End,1616147712441,3_TA,FALSE,přestěhovat-1,TRUE,FALSE,NULL
1616148152,4813829e4e70c5bc4aab6b936d4acf36,PennController,16,0,experiment,NULL,PennController,17,_Trial_,Start,1616147712445,12_RG,TRUE,stáhnout-1,FALSE,TRUE,NULL
1616148152,4813829e4e70c5bc4aab6b936d4acf36,PennController,16,0,experiment,NULL,Selector,sentence-judgement-selector,Selection,positive,1616147717425,12_RG,TRUE,stáhnout-1,FALSE,TRUE,NULL
1616148152,4813829e4e70c5bc4aab6b936d4acf36,PennController,16,0,experiment,NULL,PennController,17,_Trial_,End,1616147717927,12_RG,TRUE,stáhnout-1,FALSE,TRUE,NULL
1616148152,4813829e4e70c5bc4aab6b936d4acf36,PennController,32,0,experiment,NULL,PennController,33,_Trial_,Start,1616147717931,28_TA,FALSE,stáhnout-2,TRUE,FALSE,NULL
1616148152,4813829e4e70c5bc4aab6b936d4acf36,PennController,32,0,experiment,NULL,Selector,sentence-judgement-selector,Selection,negative,1616147721369,28_TA,FALSE,stáhnout-2,TRUE,FALSE,NULL
1616148152,4813829e4e70c5bc4aab6b936d4acf36,PennController,32,0,experiment,NULL,PennController,33,_Trial_,End,1616147721874,28_TA,FALSE,stáhnout-2,TRUE,FALSE,NULL
1616148152,4813829e4e70c5bc4aab6b936d4acf36,PennController,37,0,experiment,NULL,PennController,38,_Trial_,Start,1616147721876,31_TG,TRUE,zapsat-2,TRUE,TRUE,NULL
1616148152,4813829e4e70c5bc4aab6b936d4acf36,PennController,37,0,experiment,NULL,Selector,sentence-judgement-selector,Selection,positive,1616147726609,31_TG,TRUE,zapsat-2,TRUE,TRUE,NULL
1616148152,4813829e4e70c5bc4aab6b936d4acf36,PennController,37,0,experiment,NULL,PennController,38,_Trial_,End,1616147727113,31_TG,TRUE,zapsat-2,TRUE,TRUE,NULL
1616148152,4813829e4e70c5bc4aab6b936d4acf36,PennController,34,0,experiment,NULL,PennController,35,_Trial_,Start,1616147727116,21_RA,FALSE,vypravit-2,FALSE,FALSE,NULL
1616148152,4813829e4e70c5bc4aab6b936d4acf36,PennController,34,0,experiment,NULL,Selector,sentence-judgement-selector,Selection,negative,1616147729897,21_RA,FALSE,vypravit-2,FALSE,FALSE,NULL
1616148152,4813829e4e70c5bc4aab6b936d4acf36,PennController,34,0,experiment,NULL,PennController,35,_Trial_,End,1616147730399,21_RA,FALSE,vypravit-2,FALSE,FALSE,NULL
1616148152,4813829e4e70c5bc4aab6b936d4acf36,PennController,26,0,experiment,NULL,PennController,27,_Trial_,Start,1616147730402,26_RA,FALSE,ohlásit-2,FALSE,FALSE,NULL
1616148152,4813829e4e70c5bc4aab6b936d4acf36,PennController,26,0,experiment,NULL,Selector,sentence-judgement-selector,Selection,negative,1616147733485,26_RA,FALSE,ohlásit-2,FALSE,FALSE,NULL
1616148152,4813829e4e70c5bc4aab6b936d4acf36,PennController,26,0,experiment,NULL,PennController,27,_Trial_,End,1616147733989,26_RA,FALSE,ohlásit-2,FALSE,FALSE,NULL
1616148152,4813829e4e70c5bc4aab6b936d4acf36,PennController,14,0,experiment,NULL,PennController,15,_Trial_,Start,1616147733994,4_TG,TRUE,rozesmát-1,TRUE,TRUE,NULL
1616148152,4813829e4e70c5bc4aab6b936d4acf36,PennController,14,0,experiment,NULL,Selector,sentence-judgement-selector,Selection,positive,1616147739053,4_TG,TRUE,rozesmát-1,TRUE,TRUE,NULL
1616148152,4813829e4e70c5bc4aab6b936d4acf36,PennController,14,0,experiment,NULL,PennController,15,_Trial_,End,1616147739559,4_TG,TRUE,rozesmát-1,TRUE,TRUE,NULL
1616148152,4813829e4e70c5bc4aab6b936d4acf36,PennController,38,0,experiment,NULL,PennController,39,_Trial_,Start,1616147739561,23_RA,FALSE,zbavit-2,FALSE,FALSE,NULL
1616148152,4813829e4e70c5bc4aab6b936d4acf36,PennController,38,0,experiment,NULL,Selector,sentence-judgement-selector,Selection,negative,1616147744329,23_RA,FALSE,zbavit-2,FALSE,FALSE,NULL
1616148152,4813829e4e70c5bc4aab6b936d4acf36,PennController,38,0,experiment,NULL,PennController,39,_Trial_,End,1616147744832,23_RA,FALSE,zbavit-2,FALSE,FALSE,NULL
1616148152,4813829e4e70c5bc4aab6b936d4acf36,PennController,23,0,experiment,NULL,PennController,24,_Trial_,Start,1616147744838,25_RG,TRUE,hájit-2,FALSE,TRUE,NULL
1616148152,4813829e4e70c5bc4aab6b936d4acf36,PennController,23,0,experiment,NULL,Selector,sentence-judgement-selector,Selection,positive,1616147751837,25_RG,TRUE,hájit-2,FALSE,TRUE,NULL
1616148152,4813829e4e70c5bc4aab6b936d4acf36,PennController,23,0,experiment,NULL,PennController,24,_Trial_,End,1616147752339,25_RG,TRUE,hájit-2,FALSE,TRUE,NULL
1616148152,4813829e4e70c5bc4aab6b936d4acf36,PennController,12,0,experiment,NULL,PennController,13,_Trial_,Start,1616147752342,8_RG,TRUE,probudit-1,FALSE,TRUE,NULL
1616148152,4813829e4e70c5bc4aab6b936d4acf36,PennController,12,0,experiment,NULL,Selector,sentence-judgement-selector,Selection,positive,1616147765397,8_RG,TRUE,probudit-1,FALSE,TRUE,NULL
1616148152,4813829e4e70c5bc4aab6b936d4acf36,PennController,12,0,experiment,NULL,PennController,13,_Trial_,End,1616147765903,8_RG,TRUE,probudit-1,FALSE,TRUE,NULL
1616148152,4813829e4e70c5bc4aab6b936d4acf36,PennController,9,0,experiment,NULL,PennController,10,_Trial_,Start,1616147765905,11_TA,FALSE,oddělit-1,TRUE,FALSE,NULL
1616148152,4813829e4e70c5bc4aab6b936d4acf36,PennController,9,0,experiment,NULL,Selector,sentence-judgement-selector,Selection,negative,1616147769077,11_TA,FALSE,oddělit-1,TRUE,FALSE,NULL
1616148152,4813829e4e70c5bc4aab6b936d4acf36,PennController,9,0,experiment,NULL,PennController,10,_Trial_,End,1616147769579,11_TA,FALSE,oddělit-1,TRUE,FALSE,NULL
1616148152,4813829e4e70c5bc4aab6b936d4acf36,PennController,18,0,experiment,NULL,PennController,19,_Trial_,Start,1616147769582,5_TG,TRUE,vypravit-1,TRUE,TRUE,NULL
1616148152,4813829e4e70c5bc4aab6b936d4acf36,PennController,18,0,experiment,NULL,Selector,sentence-judgement-selector,Selection,positive,1616147772001,5_TG,TRUE,vypravit-1,TRUE,TRUE,NULL
1616148152,4813829e4e70c5bc4aab6b936d4acf36,PennController,18,0,experiment,NULL,PennController,19,_Trial_,End,1616147772503,5_TG,TRUE,vypravit-1,TRUE,TRUE,NULL
1616148152,4813829e4e70c5bc4aab6b936d4acf36,PennController,29,0,experiment,NULL,PennController,30,_Trial_,Start,1616147772506,19_TG,TRUE,přestěhovat-2,TRUE,TRUE,NULL
1616148152,4813829e4e70c5bc4aab6b936d4acf36,PennController,29,0,experiment,NULL,Selector,sentence-judgement-selector,Selection,positive,1616147775013,19_TG,TRUE,přestěhovat-2,TRUE,TRUE,NULL
1616148152,4813829e4e70c5bc4aab6b936d4acf36,PennController,29,0,experiment,NULL,PennController,30,_Trial_,End,1616147775516,19_TG,TRUE,přestěhovat-2,TRUE,TRUE,NULL
1616148152,4813829e4e70c5bc4aab6b936d4acf36,PennController,35,0,experiment,NULL,PennController,36,_Trial_,Start,1616147775518,30_RG,TRUE,vzbudit-2,FALSE,TRUE,NULL
1616148152,4813829e4e70c5bc4aab6b936d4acf36,PennController,35,0,experiment,NULL,Selector,sentence-judgement-selector,Selection,positive,1616147777513,30_RG,TRUE,vzbudit-2,FALSE,TRUE,NULL
1616148152,4813829e4e70c5bc4aab6b936d4acf36,PennController,35,0,experiment,NULL,PennController,36,_Trial_,End,1616147778017,30_RG,TRUE,vzbudit-2,FALSE,TRUE,NULL
1616148152,4813829e4e70c5bc4aab6b936d4acf36,PennController,24,0,experiment,NULL,PennController,25,_Trial_,Start,1616147778020,18_TA,FALSE,naklonit-2,TRUE,FALSE,NULL
1616148152,4813829e4e70c5bc4aab6b936d4acf36,PennController,24,0,experiment,NULL,Selector,sentence-judgement-selector,Selection,negative,1616147792649,18_TA,FALSE,naklonit-2,TRUE,FALSE,NULL
1616148152,4813829e4e70c5bc4aab6b936d4acf36,PennController,24,0,experiment,NULL,PennController,25,_Trial_,End,1616147793153,18_TA,FALSE,naklonit-2,TRUE,FALSE,NULL
1616148152,4813829e4e70c5bc4aab6b936d4acf36,PennController,11,0,experiment,NULL,PennController,12,_Trial_,Start,1616147793155,1_RA,FALSE,ponořit-1,FALSE,FALSE,NULL
1616148152,4813829e4e70c5bc4aab6b936d4acf36,PennController,11,0,experiment,NULL,Selector,sentence-judgement-selector,Selection,negative,1616147798569,1_RA,FALSE,ponořit-1,FALSE,FALSE,NULL
1616148152,4813829e4e70c5bc4aab6b936d4acf36,PennController,11,0,experiment,NULL,PennController,12,_Trial_,End,1616147799071,1_RA,FALSE,ponořit-1,FALSE,FALSE,NULL
1616148152,4813829e4e70c5bc4aab6b936d4acf36,PennController,20,0,experiment,NULL,PennController,21,_Trial_,Start,1616147799076,6_RG,TRUE,zaměřit-1,FALSE,TRUE,NULL
1616148152,4813829e4e70c5bc4aab6b936d4acf36,PennController,20,0,experiment,NULL,Selector,sentence-judgement-selector,Selection,positive,1616147804049,6_RG,TRUE,zaměřit-1,FALSE,TRUE,NULL
1616148152,4813829e4e70c5bc4aab6b936d4acf36,PennController,20,0,experiment,NULL,PennController,21,_Trial_,End,1616147804553,6_RG,TRUE,zaměřit-1,FALSE,TRUE,NULL
1616148152,4813829e4e70c5bc4aab6b936d4acf36,PennController,17,0,experiment,NULL,PennController,18,_Trial_,Start,1616147804556,13_TA,FALSE,trápit-1,TRUE,FALSE,NULL
1616148152,4813829e4e70c5bc4aab6b936d4acf36,PennController,17,0,experiment,NULL,Selector,sentence-judgement-selector,Selection,negative,1616147835853,13_TA,FALSE,trápit-1,TRUE,FALSE,NULL
1616148152,4813829e4e70c5bc4aab6b936d4acf36,PennController,17,0,experiment,NULL,PennController,18,_Trial_,End,1616147836356,13_TA,FALSE,trápit-1,TRUE,FALSE,NULL
1616148152,4813829e4e70c5bc4aab6b936d4acf36,PennController,19,0,experiment,NULL,PennController,20,_Trial_,Start,1616147836358,14_RA,FALSE,vzbudit-1,FALSE,FALSE,NULL
1616148152,4813829e4e70c5bc4aab6b936d4acf36,PennController,19,0,experiment,NULL,Selector,sentence-judgement-selector,Selection,negative,1616148091516,14_RA,FALSE,vzbudit-1,FALSE,FALSE,NULL
1616148152,4813829e4e70c5bc4aab6b936d4acf36,PennController,19,0,experiment,NULL,PennController,20,_Trial_,End,1616148092019,14_RA,FALSE,vzbudit-1,FALSE,FALSE,NULL
1616148152,4813829e4e70c5bc4aab6b936d4acf36,PennController,15,0,experiment,NULL,PennController,16,_Trial_,Start,1616148092022,16_RA,FALSE,spojit-1,FALSE,FALSE,NULL
1616148152,4813829e4e70c5bc4aab6b936d4acf36,PennController,15,0,experiment,NULL,Selector,sentence-judgement-selector,Selection,negative,1616148094136,16_RA,FALSE,spojit-1,FALSE,FALSE,NULL
1616148152,4813829e4e70c5bc4aab6b936d4acf36,PennController,15,0,experiment,NULL,PennController,16,_Trial_,End,1616148094642,16_RA,FALSE,spojit-1,FALSE,FALSE,NULL
1616148152,4813829e4e70c5bc4aab6b936d4acf36,PennController,10,0,experiment,NULL,PennController,11,_Trial_,Start,1616148094644,10_TG,TRUE,ohlásit-1,TRUE,TRUE,NULL
1616148152,4813829e4e70c5bc4aab6b936d4acf36,PennController,10,0,experiment,NULL,Selector,sentence-judgement-selector,Selection,negative,1616148101444,10_TG,TRUE,ohlásit-1,TRUE,TRUE,NULL
1616148152,4813829e4e70c5bc4aab6b936d4acf36,PennController,10,0,experiment,NULL,PennController,11,_Trial_,End,1616148101950,10_TG,TRUE,ohlásit-1,TRUE,TRUE,NULL
1616148152,4813829e4e70c5bc4aab6b936d4acf36,PennController,22,0,experiment,NULL,PennController,23,_Trial_,Start,1616148101952,7_TG,TRUE,zbavit-1,TRUE,TRUE,NULL
1616148152,4813829e4e70c5bc4aab6b936d4acf36,PennController,22,0,experiment,NULL,Selector,sentence-judgement-selector,Selection,positive,1616148104348,7_TG,TRUE,zbavit-1,TRUE,TRUE,NULL
1616148152,4813829e4e70c5bc4aab6b936d4acf36,PennController,22,0,experiment,NULL,PennController,23,_Trial_,End,1616148104854,7_TG,TRUE,zbavit-1,TRUE,TRUE,NULL
1616148152,4813829e4e70c5bc4aab6b936d4acf36,PennController,25,0,experiment,NULL,PennController,26,_Trial_,Start,1616148104857,27_TG,TRUE,oddělit-2,TRUE,TRUE,NULL
1616148152,4813829e4e70c5bc4aab6b936d4acf36,PennController,25,0,experiment,NULL,Selector,sentence-judgement-selector,Selection,positive,1616148109700,27_TG,TRUE,oddělit-2,TRUE,TRUE,NULL
1616148152,4813829e4e70c5bc4aab6b936d4acf36,PennController,25,0,experiment,NULL,PennController,26,_Trial_,End,1616148110205,27_TG,TRUE,oddělit-2,TRUE,TRUE,NULL
1616148152,4813829e4e70c5bc4aab6b936d4acf36,PennController,28,0,experiment,NULL,PennController,29,_Trial_,Start,1616148110207,24_TA,FALSE,probudit-2,TRUE,FALSE,NULL
1616148152,4813829e4e70c5bc4aab6b936d4acf36,PennController,28,0,experiment,NULL,Selector,sentence-judgement-selector,Selection,negative,1616148113936,24_TA,FALSE,probudit-2,TRUE,FALSE,NULL
1616148152,4813829e4e70c5bc4aab6b936d4acf36,PennController,28,0,experiment,NULL,PennController,29,_Trial_,End,1616148114443,24_TA,FALSE,probudit-2,TRUE,FALSE,NULL
# Columns below this comment are as follows:
# 1. Time results were received.
# 2. MD5 hash of participant's IP address.
# 3. Controller name.
# 4. Item number.
# 5. Element number.
# 6. Type.
# 7. Group.
# 8. PennElementType.
# 9. PennElementName.
# 10. Parameter.
# 11. Value.
# 12. EventTime.
# 13. Comments.
1616148152,4813829e4e70c5bc4aab6b936d4acf36,PennController,39,0,feedback,NULL,PennController,6,_Trial_,Start,1616148114445,NULL
1616148152,4813829e4e70c5bc4aab6b936d4acf36,PennController,39,0,feedback,NULL,TextInput,fbk,Final,,1616148151363,NULL
1616148152,4813829e4e70c5bc4aab6b936d4acf36,PennController,39,0,feedback,NULL,PennController,6,_Trial_,End,1616148151364,NULL
#
# Results on Friday March 19 2021 10:21:00 UTC.
# USER AGENT: Mozilla/5.0 (Windows NT 10.0; Win64; x64) AppleWebKit/537.36 (KHTML, like Gecko) Chrome/89.0.4389.90 Safari/537.36
# Design number was non-random = 94
#
# Columns below this comment are as follows:
# 1. Time results were received.
# 2. MD5 hash of participant's IP address.
# 3. Controller name.
# 4. Item number.
# 5. Element number.
# 6. Type.
# 7. Group.
# 8. PennElementType.
# 9. PennElementName.
# 10. Parameter.
# 11. Value.
# 12. EventTime.
# 13. Comments.
1616149260,24d9ee9bc81d241bb18de8577269736f,PennController,1,0,intro,NULL,PennController,0,_Trial_,Start,1616148632120,NULL
1616149260,24d9ee9bc81d241bb18de8577269736f,PennController,1,0,intro,NULL,Html,consent,consent,checked,1616148970572,checkbox
1616149260,24d9ee9bc81d241bb18de8577269736f,PennController,1,0,intro,NULL,PennController,0,_Trial_,End,1616148970572,NULL
1616149260,24d9ee9bc81d241bb18de8577269736f,PennController,2,0,form,NULL,PennController,1,_Trial_,Start,1616148970576,NULL
1616149260,24d9ee9bc81d241bb18de8577269736f,PennController,2,0,form,NULL,Html,demographics,age,20,1616149035891,text input
1616149260,24d9ee9bc81d241bb18de8577269736f,PennController,2,0,form,NULL,Html,demographics,profese,Blízkovýchodní studia (arabistika)%2C Francouzská filologie,1616149035891,text input
1616149260,24d9ee9bc81d241bb18de8577269736f,PennController,2,0,form,NULL,Html,demographics,gender,žena,1616149035891,radio button
1616149260,24d9ee9bc81d241bb18de8577269736f,PennController,2,0,form,NULL,Html,demographics,education,highw,1616149035891,radio button
1616149260,24d9ee9bc81d241bb18de8577269736f,PennController,2,0,form,NULL,Html,demographics,readingProb,no,1616149035891,radio button
1616149260,24d9ee9bc81d241bb18de8577269736f,PennController,2,0,form,NULL,Html,demographics,lg,cs,1616149035891,radio button
1616149260,24d9ee9bc81d241bb18de8577269736f,PennController,2,0,form,NULL,PennController,1,_Trial_,End,1616149035891,NULL
1616149260,24d9ee9bc81d241bb18de8577269736f,PennController,3,0,prePractice,NULL,PennController,2,_Trial_,Start,1616149035893,NULL
1616149260,24d9ee9bc81d241bb18de8577269736f,PennController,3,0,prePractice,NULL,PennController,2,_Trial_,End,1616149084414,NULL
1616149260,24d9ee9bc81d241bb18de8577269736f,PennController,4,0,practice1,NULL,PennController,3,_Trial_,Start,1616149084418,NULL
1616149260,24d9ee9bc81d241bb18de8577269736f,PennController,4,0,practice1,NULL,Selector,unnamed-Selector,Selection,positive,1616149092127,NULL
1616149260,24d9ee9bc81d241bb18de8577269736f,PennController,4,0,practice1,NULL,PennController,3,_Trial_,End,1616149092633,NULL
1616149260,24d9ee9bc81d241bb18de8577269736f,PennController,5,0,practice2,NULL,PennController,4,_Trial_,Start,1616149092635,NULL
1616149260,24d9ee9bc81d241bb18de8577269736f,PennController,5,0,practice2,NULL,Selector,unnamed-Selector,Selection,negative,1616149095860,NULL
1616149260,24d9ee9bc81d241bb18de8577269736f,PennController,5,0,practice2,NULL,PennController,4,_Trial_,End,1616149096367,NULL
1616149260,24d9ee9bc81d241bb18de8577269736f,PennController,6,0,afterPractice,NULL,PennController,5,_Trial_,Start,1616149096372,NULL
1616149260,24d9ee9bc81d241bb18de8577269736f,PennController,6,0,afterPractice,NULL,PennController,5,_Trial_,End,1616149101148,NULL
# Columns below this comment are as follows:
# 1. Time results were received.
# 2. MD5 hash of participant's IP address.
# 3. Controller name.
# 4. Item number.
# 5. Element number.
# 6. Type.
# 7. Group.
# 8. PennElementType.
# 9. PennElementName.
# 10. Parameter.
# 11. Value.
# 12. EventTime.
# 13. Item.
# 14. Answer.correct.
# 15. ArgumentVariation.
# 16. Transitive.
# 17. Grammatical.
# 18. Comments.
1616149260,24d9ee9bc81d241bb18de8577269736f,PennController,19,0,experiment,NULL,PennController,20,_Trial_,Start,1616149101150,14_RG,TRUE,vzbudit-1,FALSE,TRUE,NULL
1616149260,24d9ee9bc81d241bb18de8577269736f,PennController,19,0,experiment,NULL,Selector,sentence-judgement-selector,Selection,positive,1616149104184,14_RG,TRUE,vzbudit-1,FALSE,TRUE,NULL
1616149260,24d9ee9bc81d241bb18de8577269736f,PennController,19,0,experiment,NULL,PennController,20,_Trial_,End,1616149104687,14_RG,TRUE,vzbudit-1,FALSE,TRUE,NULL
1616149260,24d9ee9bc81d241bb18de8577269736f,PennController,26,0,experiment,NULL,PennController,27,_Trial_,Start,1616149104690,26_RG,TRUE,ohlásit-2,FALSE,TRUE,NULL
1616149260,24d9ee9bc81d241bb18de8577269736f,PennController,26,0,experiment,NULL,Selector,sentence-judgement-selector,Selection,positive,1616149111494,26_RG,TRUE,ohlásit-2,FALSE,TRUE,NULL
1616149260,24d9ee9bc81d241bb18de8577269736f,PennController,26,0,experiment,NULL,PennController,27,_Trial_,End,1616149112002,26_RG,TRUE,ohlásit-2,FALSE,TRUE,NULL
1616149260,24d9ee9bc81d241bb18de8577269736f,PennController,7,0,experiment,NULL,PennController,8,_Trial_,Start,1616149112005,9_RG,TRUE,hájit-1,FALSE,TRUE,NULL
1616149260,24d9ee9bc81d241bb18de8577269736f,PennController,7,0,experiment,NULL,Selector,sentence-judgement-selector,Selection,positive,1616149117424,9_RG,TRUE,hájit-1,FALSE,TRUE,NULL
1616149260,24d9ee9bc81d241bb18de8577269736f,PennController,7,0,experiment,NULL,PennController,8,_Trial_,End,1616149117928,9_RG,TRUE,hájit-1,FALSE,TRUE,NULL
1616149260,24d9ee9bc81d241bb18de8577269736f,PennController,35,0,experiment,NULL,PennController,36,_Trial_,Start,1616149117931,30_TA,FALSE,vzbudit-2,TRUE,FALSE,NULL
1616149260,24d9ee9bc81d241bb18de8577269736f,PennController,35,0,experiment,NULL,Selector,sentence-judgement-selector,Selection,negative,1616149122364,30_TA,FALSE,vzbudit-2,TRUE,FALSE,NULL
1616149260,24d9ee9bc81d241bb18de8577269736f,PennController,35,0,experiment,NULL,PennController,36,_Trial_,End,1616149122870,30_TA,FALSE,vzbudit-2,TRUE,FALSE,NULL
1616149260,24d9ee9bc81d241bb18de8577269736f,PennController,11,0,experiment,NULL,PennController,12,_Trial_,Start,1616149122872,1_RG,TRUE,ponořit-1,FALSE,TRUE,NULL
1616149260,24d9ee9bc81d241bb18de8577269736f,PennController,11,0,experiment,NULL,Selector,sentence-judgement-selector,Selection,positive,1616149126994,1_RG,TRUE,ponořit-1,FALSE,TRUE,NULL
1616149260,24d9ee9bc81d241bb18de8577269736f,PennController,11,0,experiment,NULL,PennController,12,_Trial_,End,1616149127499,1_RG,TRUE,ponořit-1,FALSE,TRUE,NULL
1616149260,24d9ee9bc81d241bb18de8577269736f,PennController,31,0,experiment,NULL,PennController,32,_Trial_,Start,1616149127505,32_TA,FALSE,spojit-2,TRUE,FALSE,NULL
1616149260,24d9ee9bc81d241bb18de8577269736f,PennController,31,0,experiment,NULL,Selector,sentence-judgement-selector,Selection,negative,1616149132564,32_TA,FALSE,spojit-2,TRUE,FALSE,NULL
1616149260,24d9ee9bc81d241bb18de8577269736f,PennController,31,0,experiment,NULL,PennController,32,_Trial_,End,1616149133068,32_TA,FALSE,spojit-2,TRUE,FALSE,NULL
1616149260,24d9ee9bc81d241bb18de8577269736f,PennController,23,0,experiment,NULL,PennController,24,_Trial_,Start,1616149133075,25_TA,FALSE,hájit-2,TRUE,FALSE,NULL
1616149260,24d9ee9bc81d241bb18de8577269736f,PennController,23,0,experiment,NULL,Selector,sentence-judgement-selector,Selection,negative,1616149138848,25_TA,FALSE,hájit-2,TRUE,FALSE,NULL
1616149260,24d9ee9bc81d241bb18de8577269736f,PennController,23,0,experiment,NULL,PennController,24,_Trial_,End,1616149139354,25_TA,FALSE,hájit-2,TRUE,FALSE,NULL
1616149260,24d9ee9bc81d241bb18de8577269736f,PennController,37,0,experiment,NULL,PennController,38,_Trial_,Start,1616149139358,31_RA,FALSE,zapsat-2,FALSE,FALSE,NULL
1616149260,24d9ee9bc81d241bb18de8577269736f,PennController,37,0,experiment,NULL,Selector,sentence-judgement-selector,Selection,negative,1616149143258,31_RA,FALSE,zapsat-2,FALSE,FALSE,NULL
1616149260,24d9ee9bc81d241bb18de8577269736f,PennController,37,0,experiment,NULL,PennController,38,_Trial_,End,1616149143761,31_RA,FALSE,zapsat-2,FALSE,FALSE,NULL
1616149260,24d9ee9bc81d241bb18de8577269736f,PennController,34,0,experiment,NULL,PennController,35,_Trial_,Start,1616149143763,21_RG,TRUE,vypravit-2,FALSE,TRUE,NULL
1616149260,24d9ee9bc81d241bb18de8577269736f,PennController,34,0,experiment,NULL,Selector,sentence-judgement-selector,Selection,positive,1616149147400,21_RG,TRUE,vypravit-2,FALSE,TRUE,NULL
1616149260,24d9ee9bc81d241bb18de8577269736f,PennController,34,0,experiment,NULL,PennController,35,_Trial_,End,1616149147903,21_RG,TRUE,vypravit-2,FALSE,TRUE,NULL
1616149260,24d9ee9bc81d241bb18de8577269736f,PennController,29,0,experiment,NULL,PennController,30,_Trial_,Start,1616149147908,19_RA,FALSE,přestěhovat-2,FALSE,FALSE,NULL
1616149260,24d9ee9bc81d241bb18de8577269736f,PennController,29,0,experiment,NULL,Selector,sentence-judgement-selector,Selection,negative,1616149150774,19_RA,FALSE,přestěhovat-2,FALSE,FALSE,NULL
1616149260,24d9ee9bc81d241bb18de8577269736f,PennController,29,0,experiment,NULL,PennController,30,_Trial_,End,1616149151281,19_RA,FALSE,přestěhovat-2,FALSE,FALSE,NULL
1616149260,24d9ee9bc81d241bb18de8577269736f,PennController,27,0,experiment,NULL,PennController,28,_Trial_,Start,1616149151285,17_TA,FALSE,ponořit-2,TRUE,FALSE,NULL
1616149260,24d9ee9bc81d241bb18de8577269736f,PennController,27,0,experiment,NULL,Selector,sentence-judgement-selector,Selection,negative,1616149154814,17_TA,FALSE,ponořit-2,TRUE,FALSE,NULL
1616149260,24d9ee9bc81d241bb18de8577269736f,PennController,27,0,experiment,NULL,PennController,28,_Trial_,End,1616149155319,17_TA,FALSE,ponořit-2,TRUE,FALSE,NULL
1616149260,24d9ee9bc81d241bb18de8577269736f,PennController,20,0,experiment,NULL,PennController,21,_Trial_,Start,1616149155323,6_TA,FALSE,zaměřit-1,TRUE,FALSE,NULL
1616149260,24d9ee9bc81d241bb18de8577269736f,PennController,20,0,experiment,NULL,Selector,sentence-judgement-selector,Selection,negative,1616149160216,6_TA,FALSE,zaměřit-1,TRUE,FALSE,NULL
1616149260,24d9ee9bc81d241bb18de8577269736f,PennController,20,0,experiment,NULL,PennController,21,_Trial_,End,1616149160719,6_TA,FALSE,zaměřit-1,TRUE,FALSE,NULL
1616149260,24d9ee9bc81d241bb18de8577269736f,PennController,38,0,experiment,NULL,PennController,39,_Trial_,Start,1616149160721,23_RG,TRUE,zbavit-2,FALSE,TRUE,NULL
1616149260,24d9ee9bc81d241bb18de8577269736f,PennController,38,0,experiment,NULL,Selector,sentence-judgement-selector,Selection,positive,1616149163164,23_RG,TRUE,zbavit-2,FALSE,TRUE,NULL
1616149260,24d9ee9bc81d241bb18de8577269736f,PennController,38,0,experiment,NULL,PennController,39,_Trial_,End,1616149163668,23_RG,TRUE,zbavit-2,FALSE,TRUE,NULL
1616149260,24d9ee9bc81d241bb18de8577269736f,PennController,24,0,experiment,NULL,PennController,25,_Trial_,Start,1616149163673,18_TG,TRUE,naklonit-2,TRUE,TRUE,NULL
1616149260,24d9ee9bc81d241bb18de8577269736f,PennController,24,0,experiment,NULL,Selector,sentence-judgement-selector,Selection,positive,1616149169008,18_TG,TRUE,naklonit-2,TRUE,TRUE,NULL
1616149260,24d9ee9bc81d241bb18de8577269736f,PennController,24,0,experiment,NULL,PennController,25,_Trial_,End,1616149169512,18_TG,TRUE,naklonit-2,TRUE,TRUE,NULL
1616149260,24d9ee9bc81d241bb18de8577269736f,PennController,16,0,experiment,NULL,PennController,17,_Trial_,Start,1616149169517,12_TA,FALSE,stáhnout-1,TRUE,FALSE,NULL
1616149260,24d9ee9bc81d241bb18de8577269736f,PennController,16,0,experiment,NULL,Selector,sentence-judgement-selector,Selection,negative,1616149172478,12_TA,FALSE,stáhnout-1,TRUE,FALSE,NULL
1616149260,24d9ee9bc81d241bb18de8577269736f,PennController,16,0,experiment,NULL,PennController,17,_Trial_,End,1616149172983,12_TA,FALSE,stáhnout-1,TRUE,FALSE,NULL
1616149260,24d9ee9bc81d241bb18de8577269736f,PennController,30,0,experiment,NULL,PennController,31,_Trial_,Start,1616149172987,20_RG,TRUE,rozesmát-2,FALSE,TRUE,NULL
1616149260,24d9ee9bc81d241bb18de8577269736f,PennController,30,0,experiment,NULL,Selector,sentence-judgement-selector,Selection,positive,1616149175300,20_RG,TRUE,rozesmát-2,FALSE,TRUE,NULL
1616149260,24d9ee9bc81d241bb18de8577269736f,PennController,30,0,experiment,NULL,PennController,31,_Trial_,End,1616149175805,20_RG,TRUE,rozesmát-2,FALSE,TRUE,NULL
1616149260,24d9ee9bc81d241bb18de8577269736f,PennController,32,0,experiment,NULL,PennController,33,_Trial_,Start,1616149175809,28_TG,TRUE,stáhnout-2,TRUE,TRUE,NULL
1616149260,24d9ee9bc81d241bb18de8577269736f,PennController,32,0,experiment,NULL,Selector,sentence-judgement-selector,Selection,positive,1616149179498,28_TG,TRUE,stáhnout-2,TRUE,TRUE,NULL
1616149260,24d9ee9bc81d241bb18de8577269736f,PennController,32,0,experiment,NULL,PennController,33,_Trial_,End,1616149180003,28_TG,TRUE,stáhnout-2,TRUE,TRUE,NULL
1616149260,24d9ee9bc81d241bb18de8577269736f,PennController,12,0,experiment,NULL,PennController,13,_Trial_,Start,1616149180007,8_TA,FALSE,probudit-1,TRUE,FALSE,NULL
1616149260,24d9ee9bc81d241bb18de8577269736f,PennController,12,0,experiment,NULL,Selector,sentence-judgement-selector,Selection,negative,1616149182664,8_TA,FALSE,probudit-1,TRUE,FALSE,NULL
1616149260,24d9ee9bc81d241bb18de8577269736f,PennController,12,0,experiment,NULL,PennController,13,_Trial_,End,1616149183169,8_TA,FALSE,probudit-1,TRUE,FALSE,NULL
1616149260,24d9ee9bc81d241bb18de8577269736f,PennController,28,0,experiment,NULL,PennController,29,_Trial_,Start,1616149183170,24_TG,TRUE,probudit-2,TRUE,TRUE,NULL
1616149260,24d9ee9bc81d241bb18de8577269736f,PennController,28,0,experiment,NULL,Selector,sentence-judgement-selector,Selection,positive,1616149185894,24_TG,TRUE,probudit-2,TRUE,TRUE,NULL
1616149260,24d9ee9bc81d241bb18de8577269736f,PennController,28,0,experiment,NULL,PennController,29,_Trial_,End,1616149186397,24_TG,TRUE,probudit-2,TRUE,TRUE,NULL
1616149260,24d9ee9bc81d241bb18de8577269736f,PennController,22,0,experiment,NULL,PennController,23,_Trial_,Start,1616149186401,7_RA,FALSE,zbavit-1,FALSE,FALSE,NULL
1616149260,24d9ee9bc81d241bb18de8577269736f,PennController,22,0,experiment,NULL,Selector,sentence-judgement-selector,Selection,negative,1616149189122,7_RA,FALSE,zbavit-1,FALSE,FALSE,NULL
1616149260,24d9ee9bc81d241bb18de8577269736f,PennController,22,0,experiment,NULL,PennController,23,_Trial_,End,1616149189626,7_RA,FALSE,zbavit-1,FALSE,FALSE,NULL
1616149260,24d9ee9bc81d241bb18de8577269736f,PennController,9,0,experiment,NULL,PennController,10,_Trial_,Start,1616149189629,11_TG,TRUE,oddělit-1,TRUE,TRUE,NULL
1616149260,24d9ee9bc81d241bb18de8577269736f,PennController,9,0,experiment,NULL,Selector,sentence-judgement-selector,Selection,positive,1616149194060,11_TG,TRUE,oddělit-1,TRUE,TRUE,NULL
1616149260,24d9ee9bc81d241bb18de8577269736f,PennController,9,0,experiment,NULL,PennController,10,_Trial_,End,1616149194565,11_TG,TRUE,oddělit-1,TRUE,TRUE,NULL
1616149260,24d9ee9bc81d241bb18de8577269736f,PennController,36,0,experiment,NULL,PennController,37,_Trial_,Start,1616149194570,22_TG,TRUE,zaměřit-2,TRUE,TRUE,NULL
1616149260,24d9ee9bc81d241bb18de8577269736f,PennController,36,0,experiment,NULL,Selector,sentence-judgement-selector,Selection,positive,1616149198098,22_TG,TRUE,zaměřit-2,TRUE,TRUE,NULL
1616149260,24d9ee9bc81d241bb18de8577269736f,PennController,36,0,experiment,NULL,PennController,37,_Trial_,End,1616149198606,22_TG,TRUE,zaměřit-2,TRUE,TRUE,NULL
1616149260,24d9ee9bc81d241bb18de8577269736f,PennController,15,0,experiment,NULL,PennController,16,_Trial_,Start,1616149198610,16_RG,TRUE,spojit-1,FALSE,TRUE,NULL
1616149260,24d9ee9bc81d241bb18de8577269736f,PennController,15,0,experiment,NULL,Selector,sentence-judgement-selector,Selection,positive,1616149200854,16_RG,TRUE,spojit-1,FALSE,TRUE,NULL
1616149260,24d9ee9bc81d241bb18de8577269736f,PennController,15,0,experiment,NULL,PennController,16,_Trial_,End,1616149201361,16_RG,TRUE,spojit-1,FALSE,TRUE,NULL
1616149260,24d9ee9bc81d241bb18de8577269736f,PennController,33,0,experiment,NULL,PennController,34,_Trial_,Start,1616149201364,29_RA,FALSE,trápit-2,FALSE,FALSE,NULL
1616149260,24d9ee9bc81d241bb18de8577269736f,PennController,33,0,experiment,NULL,Selector,sentence-judgement-selector,Selection,negative,1616149203924,29_RA,FALSE,trápit-2,FALSE,FALSE,NULL
1616149260,24d9ee9bc81d241bb18de8577269736f,PennController,33,0,experiment,NULL,PennController,34,_Trial_,End,1616149204427,29_RA,FALSE,trápit-2,FALSE,FALSE,NULL
1616149260,24d9ee9bc81d241bb18de8577269736f,PennController,18,0,experiment,NULL,PennController,19,_Trial_,Start,1616149204434,5_RA,FALSE,vypravit-1,FALSE,FALSE,NULL
1616149260,24d9ee9bc81d241bb18de8577269736f,PennController,18,0,experiment,NULL,Selector,sentence-judgement-selector,Selection,negative,1616149206978,5_RA,FALSE,vypravit-1,FALSE,FALSE,NULL
1616149260,24d9ee9bc81d241bb18de8577269736f,PennController,18,0,experiment,NULL,PennController,19,_Trial_,End,1616149207482,5_RA,FALSE,vypravit-1,FALSE,FALSE,NULL
1616149260,24d9ee9bc81d241bb18de8577269736f,PennController,25,0,experiment,NULL,PennController,26,_Trial_,Start,1616149207486,27_RA,FALSE,oddělit-2,FALSE,FALSE,NULL
1616149260,24d9ee9bc81d241bb18de8577269736f,PennController,25,0,experiment,NULL,Selector,sentence-judgement-selector,Selection,negative,1616149210706,27_RA,FALSE,oddělit-2,FALSE,FALSE,NULL
1616149260,24d9ee9bc81d241bb18de8577269736f,PennController,25,0,experiment,NULL,PennController,26,_Trial_,End,1616149211210,27_RA,FALSE,oddělit-2,FALSE,FALSE,NULL
