#

#
# Results on Monday January 18 2021 16:05:40 UTC.
# USER AGENT: Mozilla/5.0 (Windows NT 10.0; Win64; x64) AppleWebKit/537.36 (KHTML, like Gecko) Chrome/87.0.4280.141 Safari/537.36
# Design number was non-random = 37
#
# Columns below this comment are as follows:
# 1. Time results were received.
# 2. MD5 hash of participant's IP address.
# 3. Controller name.
# 4. Item number.
# 5. Element number.
# 6. Type.
# 7. Group.
# 8. PennElementType.
# 9. PennElementName.
# 10. Parameter.
# 11. Value.
# 12. EventTime.
# 13. Comments.
1610985941,fb4b46785fa9ac2ba8f8aff0635e7f45,PennController,1,0,intro,NULL,PennController,0,_Trial_,Start,1610985110664,NULL
1610985941,fb4b46785fa9ac2ba8f8aff0635e7f45,PennController,1,0,intro,NULL,Html,consent,consent,checked,1610985152709,checkbox
1610985941,fb4b46785fa9ac2ba8f8aff0635e7f45,PennController,1,0,intro,NULL,PennController,0,_Trial_,End,1610985152711,NULL
1610985941,fb4b46785fa9ac2ba8f8aff0635e7f45,PennController,2,0,form,NULL,PennController,1,_Trial_,Start,1610985152723,NULL
1610985941,fb4b46785fa9ac2ba8f8aff0635e7f45,PennController,2,0,form,NULL,Html,demographics,age,20,1610985194980,text input
1610985941,fb4b46785fa9ac2ba8f8aff0635e7f45,PennController,2,0,form,NULL,Html,demographics,profese,Hispanistika na FFUK%2C malba na AVU,1610985194980,text input
1610985941,fb4b46785fa9ac2ba8f8aff0635e7f45,PennController,2,0,form,NULL,Html,demographics,gender,žena,1610985194982,radio button
1610985941,fb4b46785fa9ac2ba8f8aff0635e7f45,PennController,2,0,form,NULL,Html,demographics,education,highw,1610985194982,radio button
1610985941,fb4b46785fa9ac2ba8f8aff0635e7f45,PennController,2,0,form,NULL,Html,demographics,readingProb,no,1610985194982,radio button
1610985941,fb4b46785fa9ac2ba8f8aff0635e7f45,PennController,2,0,form,NULL,Html,demographics,lg,cs,1610985194982,radio button
1610985941,fb4b46785fa9ac2ba8f8aff0635e7f45,PennController,2,0,form,NULL,PennController,1,_Trial_,End,1610985194983,NULL
1610985941,fb4b46785fa9ac2ba8f8aff0635e7f45,PennController,3,0,prePractice,NULL,PennController,2,_Trial_,Start,1610985194988,NULL
1610985941,fb4b46785fa9ac2ba8f8aff0635e7f45,PennController,3,0,prePractice,NULL,PennController,2,_Trial_,End,1610985222961,NULL
1610985941,fb4b46785fa9ac2ba8f8aff0635e7f45,PennController,4,0,practice1,NULL,PennController,3,_Trial_,Start,1610985222967,NULL
1610985941,fb4b46785fa9ac2ba8f8aff0635e7f45,PennController,4,0,practice1,NULL,Scale,anoNe,Choice,dává smysl,1610985227762,NULL
1610985941,fb4b46785fa9ac2ba8f8aff0635e7f45,PennController,4,0,practice1,NULL,PennController,3,_Trial_,End,1610985228281,NULL
1610985941,fb4b46785fa9ac2ba8f8aff0635e7f45,PennController,5,0,practice2,NULL,PennController,4,_Trial_,Start,1610985228306,NULL
1610985941,fb4b46785fa9ac2ba8f8aff0635e7f45,PennController,5,0,practice2,NULL,Scale,anoNe,Choice,nedává smysl,1610985232279,NULL
1610985941,fb4b46785fa9ac2ba8f8aff0635e7f45,PennController,5,0,practice2,NULL,PennController,4,_Trial_,End,1610985232792,NULL
1610985941,fb4b46785fa9ac2ba8f8aff0635e7f45,PennController,6,0,afterPractice,NULL,PennController,5,_Trial_,Start,1610985232808,NULL
1610985941,fb4b46785fa9ac2ba8f8aff0635e7f45,PennController,6,0,afterPractice,NULL,PennController,5,_Trial_,End,1610985239664,NULL
# Columns below this comment are as follows:
# 1. Time results were received.
# 2. MD5 hash of participant's IP address.
# 3. Controller name.
# 4. Item number.
# 5. Element number.
# 6. Type.
# 7. Group.
# 8. PennElementType.
# 9. PennElementName.
# 10. Parameter.
# 11. Value.
# 12. EventTime.
# 13. Item.
# 14. Answer.correct.
# 15. Comments.
1610985941,fb4b46785fa9ac2ba8f8aff0635e7f45,PennController,54,0,experiment,NULL,PennController,55,_Trial_,Start,1610985239670,5_RA,FALSE,NULL
1610985941,fb4b46785fa9ac2ba8f8aff0635e7f45,PennController,54,0,experiment,NULL,Scale,anoNe,Choice,nedává smysl,1610985243708,5_RA,FALSE,NULL
1610985941,fb4b46785fa9ac2ba8f8aff0635e7f45,PennController,54,0,experiment,NULL,PennController,55,_Trial_,End,1610985244218,5_RA,FALSE,NULL
1610985941,fb4b46785fa9ac2ba8f8aff0635e7f45,PennController,125,0,experiment,NULL,PennController,126,_Trial_,Start,1610985244224,22_RG,TRUE,NULL
1610985941,fb4b46785fa9ac2ba8f8aff0635e7f45,PennController,125,0,experiment,NULL,Scale,anoNe,Choice,dává smysl,1610985247349,22_RG,TRUE,NULL
1610985941,fb4b46785fa9ac2ba8f8aff0635e7f45,PennController,125,0,experiment,NULL,PennController,126,_Trial_,End,1610985247863,22_RG,TRUE,NULL
1610985941,fb4b46785fa9ac2ba8f8aff0635e7f45,PennController,74,0,experiment,NULL,PennController,75,_Trial_,Start,1610985247880,25_RA,FALSE,NULL
1610985941,fb4b46785fa9ac2ba8f8aff0635e7f45,PennController,74,0,experiment,NULL,Scale,anoNe,Choice,nedává smysl,1610985251881,25_RA,FALSE,NULL
1610985941,fb4b46785fa9ac2ba8f8aff0635e7f45,PennController,74,0,experiment,NULL,PennController,75,_Trial_,End,1610985252394,25_RA,FALSE,NULL
1610985941,fb4b46785fa9ac2ba8f8aff0635e7f45,PennController,86,0,experiment,NULL,PennController,87,_Trial_,Start,1610985252406,26_RA,FALSE,NULL
1610985941,fb4b46785fa9ac2ba8f8aff0635e7f45,PennController,86,0,experiment,NULL,Scale,anoNe,Choice,nedává smysl,1610985256735,26_RA,FALSE,NULL
1610985941,fb4b46785fa9ac2ba8f8aff0635e7f45,PennController,86,0,experiment,NULL,PennController,87,_Trial_,End,1610985257245,26_RA,FALSE,NULL
1610985941,fb4b46785fa9ac2ba8f8aff0635e7f45,PennController,39,0,experiment,NULL,PennController,40,_Trial_,Start,1610985257255,16_TG,TRUE,NULL
1610985941,fb4b46785fa9ac2ba8f8aff0635e7f45,PennController,39,0,experiment,NULL,Scale,anoNe,Choice,dává smysl,1610985261148,16_TG,TRUE,NULL
1610985941,fb4b46785fa9ac2ba8f8aff0635e7f45,PennController,39,0,experiment,NULL,PennController,40,_Trial_,End,1610985261659,16_TG,TRUE,NULL
1610985941,fb4b46785fa9ac2ba8f8aff0635e7f45,PennController,95,0,experiment,NULL,PennController,96,_Trial_,Start,1610985261669,19_TG,TRUE,NULL
1610985941,fb4b46785fa9ac2ba8f8aff0635e7f45,PennController,95,0,experiment,NULL,Scale,anoNe,Choice,dává smysl,1610985267674,19_TG,TRUE,NULL
1610985941,fb4b46785fa9ac2ba8f8aff0635e7f45,PennController,95,0,experiment,NULL,PennController,96,_Trial_,End,1610985268188,19_TG,TRUE,NULL
1610985941,fb4b46785fa9ac2ba8f8aff0635e7f45,PennController,113,0,experiment,NULL,PennController,114,_Trial_,Start,1610985268203,29_RG,TRUE,NULL
1610985941,fb4b46785fa9ac2ba8f8aff0635e7f45,PennController,113,0,experiment,NULL,Scale,anoNe,Choice,dává smysl,1610985272777,29_RG,TRUE,NULL
1610985941,fb4b46785fa9ac2ba8f8aff0635e7f45,PennController,113,0,experiment,NULL,PennController,114,_Trial_,End,1610985273287,29_RG,TRUE,NULL
1610985941,fb4b46785fa9ac2ba8f8aff0635e7f45,PennController,59,0,experiment,NULL,PennController,60,_Trial_,Start,1610985273297,6_TG,TRUE,NULL
1610985941,fb4b46785fa9ac2ba8f8aff0635e7f45,PennController,59,0,experiment,NULL,Scale,anoNe,Choice,dává smysl,1610985278826,6_TG,TRUE,NULL
1610985941,fb4b46785fa9ac2ba8f8aff0635e7f45,PennController,59,0,experiment,NULL,PennController,60,_Trial_,End,1610985279343,6_TG,TRUE,NULL
1610985941,fb4b46785fa9ac2ba8f8aff0635e7f45,PennController,68,0,experiment,NULL,PennController,69,_Trial_,Start,1610985279360,7_TA,FALSE,NULL
1610985941,fb4b46785fa9ac2ba8f8aff0635e7f45,PennController,68,0,experiment,NULL,Scale,anoNe,Choice,nedává smysl,1610985283400,7_TA,FALSE,NULL
1610985941,fb4b46785fa9ac2ba8f8aff0635e7f45,PennController,68,0,experiment,NULL,PennController,69,_Trial_,End,1610985283915,7_TA,FALSE,NULL
1610985941,fb4b46785fa9ac2ba8f8aff0635e7f45,PennController,23,0,experiment,NULL,PennController,24,_Trial_,Start,1610985283934,1_TG,TRUE,NULL
1610985941,fb4b46785fa9ac2ba8f8aff0635e7f45,PennController,23,0,experiment,NULL,Scale,anoNe,Choice,dává smysl,1610985287254,1_TG,TRUE,NULL
1610985941,fb4b46785fa9ac2ba8f8aff0635e7f45,PennController,23,0,experiment,NULL,PennController,24,_Trial_,End,1610985287759,1_TG,TRUE,NULL
1610985941,fb4b46785fa9ac2ba8f8aff0635e7f45,PennController,62,0,experiment,NULL,PennController,63,_Trial_,Start,1610985287763,6_RA,FALSE,NULL
1610985941,fb4b46785fa9ac2ba8f8aff0635e7f45,PennController,62,0,experiment,NULL,Scale,anoNe,Choice,nedává smysl,1610985291735,6_RA,FALSE,NULL
1610985941,fb4b46785fa9ac2ba8f8aff0635e7f45,PennController,62,0,experiment,NULL,PennController,63,_Trial_,End,1610985292247,6_RA,FALSE,NULL
1610985941,fb4b46785fa9ac2ba8f8aff0635e7f45,PennController,15,0,experiment,NULL,PennController,16,_Trial_,Start,1610985292264,11_TG,TRUE,NULL
1610985941,fb4b46785fa9ac2ba8f8aff0635e7f45,PennController,15,0,experiment,NULL,Scale,anoNe,Choice,dává smysl,1610985296712,11_TG,TRUE,NULL
1610985941,fb4b46785fa9ac2ba8f8aff0635e7f45,PennController,15,0,experiment,NULL,PennController,16,_Trial_,End,1610985297225,11_TG,TRUE,NULL
1610985941,fb4b46785fa9ac2ba8f8aff0635e7f45,PennController,64,0,experiment,NULL,PennController,65,_Trial_,Start,1610985297229,15_TA,FALSE,NULL
1610985941,fb4b46785fa9ac2ba8f8aff0635e7f45,PennController,64,0,experiment,NULL,Scale,anoNe,Choice,nedává smysl,1610985301104,15_TA,FALSE,NULL
1610985941,fb4b46785fa9ac2ba8f8aff0635e7f45,PennController,64,0,experiment,NULL,PennController,65,_Trial_,End,1610985301617,15_TA,FALSE,NULL
1610985941,fb4b46785fa9ac2ba8f8aff0635e7f45,PennController,82,0,experiment,NULL,PennController,83,_Trial_,Start,1610985301633,27_RA,FALSE,NULL
1610985941,fb4b46785fa9ac2ba8f8aff0635e7f45,PennController,82,0,experiment,NULL,Scale,anoNe,Choice,nedává smysl,1610985305852,27_RA,FALSE,NULL
1610985941,fb4b46785fa9ac2ba8f8aff0635e7f45,PennController,82,0,experiment,NULL,PennController,83,_Trial_,End,1610985306366,27_RA,FALSE,NULL
1610985941,fb4b46785fa9ac2ba8f8aff0635e7f45,PennController,10,0,experiment,NULL,PennController,11,_Trial_,Start,1610985306382,9_RA,FALSE,NULL
1610985941,fb4b46785fa9ac2ba8f8aff0635e7f45,PennController,10,0,experiment,NULL,Scale,anoNe,Choice,nedává smysl,1610985309991,9_RA,FALSE,NULL
1610985941,fb4b46785fa9ac2ba8f8aff0635e7f45,PennController,10,0,experiment,NULL,PennController,11,_Trial_,End,1610985310501,9_RA,FALSE,NULL
1610985941,fb4b46785fa9ac2ba8f8aff0635e7f45,PennController,33,0,experiment,NULL,PennController,34,_Trial_,Start,1610985310513,3_RG,TRUE,NULL
1610985941,fb4b46785fa9ac2ba8f8aff0635e7f45,PennController,33,0,experiment,NULL,Scale,anoNe,Choice,dává smysl,1610985314033,3_RG,TRUE,NULL
1610985941,fb4b46785fa9ac2ba8f8aff0635e7f45,PennController,33,0,experiment,NULL,PennController,34,_Trial_,End,1610985314550,3_RG,TRUE,NULL
1610985941,fb4b46785fa9ac2ba8f8aff0635e7f45,PennController,55,0,experiment,NULL,PennController,56,_Trial_,Start,1610985314567,14_TG,TRUE,NULL
1610985941,fb4b46785fa9ac2ba8f8aff0635e7f45,PennController,55,0,experiment,NULL,Scale,anoNe,Choice,dává smysl,1610985318141,14_TG,TRUE,NULL
1610985941,fb4b46785fa9ac2ba8f8aff0635e7f45,PennController,55,0,experiment,NULL,PennController,56,_Trial_,End,1610985318653,14_TG,TRUE,NULL
1610985941,fb4b46785fa9ac2ba8f8aff0635e7f45,PennController,14,0,experiment,NULL,PennController,15,_Trial_,Start,1610985318668,2_RA,FALSE,NULL
1610985941,fb4b46785fa9ac2ba8f8aff0635e7f45,PennController,14,0,experiment,NULL,Scale,anoNe,Choice,nedává smysl,1610985323784,2_RA,FALSE,NULL
1610985941,fb4b46785fa9ac2ba8f8aff0635e7f45,PennController,14,0,experiment,NULL,PennController,15,_Trial_,End,1610985324297,2_RA,FALSE,NULL
1610985941,fb4b46785fa9ac2ba8f8aff0635e7f45,PennController,50,0,experiment,NULL,PennController,51,_Trial_,Start,1610985324316,13_RA,FALSE,NULL
1610985941,fb4b46785fa9ac2ba8f8aff0635e7f45,PennController,50,0,experiment,NULL,Scale,anoNe,Choice,nedává smysl,1610985337166,13_RA,FALSE,NULL
1610985941,fb4b46785fa9ac2ba8f8aff0635e7f45,PennController,50,0,experiment,NULL,PennController,51,_Trial_,End,1610985337681,13_RA,FALSE,NULL
1610985941,fb4b46785fa9ac2ba8f8aff0635e7f45,PennController,87,0,experiment,NULL,PennController,88,_Trial_,Start,1610985337697,17_TG,TRUE,NULL
1610985941,fb4b46785fa9ac2ba8f8aff0635e7f45,PennController,87,0,experiment,NULL,Scale,anoNe,Choice,dává smysl,1610985342340,17_TG,TRUE,NULL
1610985941,fb4b46785fa9ac2ba8f8aff0635e7f45,PennController,87,0,experiment,NULL,PennController,88,_Trial_,End,1610985342901,17_TG,TRUE,NULL
1610985941,fb4b46785fa9ac2ba8f8aff0635e7f45,PennController,63,0,experiment,NULL,PennController,64,_Trial_,Start,1610985342940,15_TG,TRUE,NULL
1610985941,fb4b46785fa9ac2ba8f8aff0635e7f45,PennController,63,0,experiment,NULL,Scale,anoNe,Choice,dává smysl,1610985389564,15_TG,TRUE,NULL
1610985941,fb4b46785fa9ac2ba8f8aff0635e7f45,PennController,63,0,experiment,NULL,PennController,64,_Trial_,End,1610985390079,15_TG,TRUE,NULL
1610985941,fb4b46785fa9ac2ba8f8aff0635e7f45,PennController,129,0,experiment,NULL,PennController,130,_Trial_,Start,1610985390117,31_RG,TRUE,NULL
1610985941,fb4b46785fa9ac2ba8f8aff0635e7f45,PennController,129,0,experiment,NULL,Scale,anoNe,Choice,nedává smysl,1610985393348,31_RG,TRUE,NULL
1610985941,fb4b46785fa9ac2ba8f8aff0635e7f45,PennController,129,0,experiment,NULL,PennController,130,_Trial_,End,1610985393862,31_RG,TRUE,NULL
1610985941,fb4b46785fa9ac2ba8f8aff0635e7f45,PennController,44,0,experiment,NULL,PennController,45,_Trial_,Start,1610985393875,12_TA,FALSE,NULL
1610985941,fb4b46785fa9ac2ba8f8aff0635e7f45,PennController,44,0,experiment,NULL,Scale,anoNe,Choice,nedává smysl,1610985400207,12_TA,FALSE,NULL
1610985941,fb4b46785fa9ac2ba8f8aff0635e7f45,PennController,44,0,experiment,NULL,PennController,45,_Trial_,End,1610985400720,12_TA,FALSE,NULL
1610985941,fb4b46785fa9ac2ba8f8aff0635e7f45,PennController,122,0,experiment,NULL,PennController,123,_Trial_,Start,1610985400736,30_RA,FALSE,NULL
1610985941,fb4b46785fa9ac2ba8f8aff0635e7f45,PennController,122,0,experiment,NULL,Scale,anoNe,Choice,nedává smysl,1610985404014,30_RA,FALSE,NULL
1610985941,fb4b46785fa9ac2ba8f8aff0635e7f45,PennController,122,0,experiment,NULL,PennController,123,_Trial_,End,1610985404528,30_RA,FALSE,NULL
1610985941,fb4b46785fa9ac2ba8f8aff0635e7f45,PennController,30,0,experiment,NULL,PennController,31,_Trial_,Start,1610985404542,8_RA,FALSE,NULL
1610985941,fb4b46785fa9ac2ba8f8aff0635e7f45,PennController,30,0,experiment,NULL,Scale,anoNe,Choice,nedává smysl,1610985409861,8_RA,FALSE,NULL
1610985941,fb4b46785fa9ac2ba8f8aff0635e7f45,PennController,30,0,experiment,NULL,PennController,31,_Trial_,End,1610985410375,8_RA,FALSE,NULL
1610985941,fb4b46785fa9ac2ba8f8aff0635e7f45,PennController,105,0,experiment,NULL,PennController,106,_Trial_,Start,1610985410390,32_RG,TRUE,NULL
1610985941,fb4b46785fa9ac2ba8f8aff0635e7f45,PennController,105,0,experiment,NULL,Scale,anoNe,Choice,dává smysl,1610985414150,32_RG,TRUE,NULL
1610985941,fb4b46785fa9ac2ba8f8aff0635e7f45,PennController,105,0,experiment,NULL,PennController,106,_Trial_,End,1610985414666,32_RG,TRUE,NULL
1610985941,fb4b46785fa9ac2ba8f8aff0635e7f45,PennController,56,0,experiment,NULL,PennController,57,_Trial_,Start,1610985414680,14_TA,FALSE,NULL
1610985941,fb4b46785fa9ac2ba8f8aff0635e7f45,PennController,56,0,experiment,NULL,Scale,anoNe,Choice,nedává smysl,1610985417850,14_TA,FALSE,NULL
1610985941,fb4b46785fa9ac2ba8f8aff0635e7f45,PennController,56,0,experiment,NULL,PennController,57,_Trial_,End,1610985418362,14_TA,FALSE,NULL
1610985941,fb4b46785fa9ac2ba8f8aff0635e7f45,PennController,11,0,experiment,NULL,PennController,12,_Trial_,Start,1610985418376,2_TG,TRUE,NULL
1610985941,fb4b46785fa9ac2ba8f8aff0635e7f45,PennController,11,0,experiment,NULL,Scale,anoNe,Choice,dává smysl,1610985423617,2_TG,TRUE,NULL
1610985941,fb4b46785fa9ac2ba8f8aff0635e7f45,PennController,11,0,experiment,NULL,PennController,12,_Trial_,End,1610985424143,2_TG,TRUE,NULL
1610985941,fb4b46785fa9ac2ba8f8aff0635e7f45,PennController,110,0,experiment,NULL,PennController,111,_Trial_,Start,1610985424158,28_RA,FALSE,NULL
1610985941,fb4b46785fa9ac2ba8f8aff0635e7f45,PennController,110,0,experiment,NULL,Scale,anoNe,Choice,nedává smysl,1610985432556,28_RA,FALSE,NULL
1610985941,fb4b46785fa9ac2ba8f8aff0635e7f45,PennController,110,0,experiment,NULL,PennController,111,_Trial_,End,1610985433068,28_RA,FALSE,NULL
1610985941,fb4b46785fa9ac2ba8f8aff0635e7f45,PennController,100,0,experiment,NULL,PennController,101,_Trial_,Start,1610985433078,20_TA,FALSE,NULL
1610985941,fb4b46785fa9ac2ba8f8aff0635e7f45,PennController,100,0,experiment,NULL,Scale,anoNe,Choice,nedává smysl,1610985446686,20_TA,FALSE,NULL
1610985941,fb4b46785fa9ac2ba8f8aff0635e7f45,PennController,100,0,experiment,NULL,PennController,101,_Trial_,End,1610985447200,20_TA,FALSE,NULL
1610985941,fb4b46785fa9ac2ba8f8aff0635e7f45,PennController,42,0,experiment,NULL,PennController,43,_Trial_,Start,1610985447222,16_RA,FALSE,NULL
1610985941,fb4b46785fa9ac2ba8f8aff0635e7f45,PennController,42,0,experiment,NULL,Scale,anoNe,Choice,nedává smysl,1610985450664,16_RA,FALSE,NULL
1610985941,fb4b46785fa9ac2ba8f8aff0635e7f45,PennController,42,0,experiment,NULL,PennController,43,_Trial_,End,1610985451173,16_RA,FALSE,NULL
1610985941,fb4b46785fa9ac2ba8f8aff0635e7f45,PennController,79,0,experiment,NULL,PennController,80,_Trial_,Start,1610985451179,27_TG,TRUE,NULL
1610985941,fb4b46785fa9ac2ba8f8aff0635e7f45,PennController,79,0,experiment,NULL,Scale,anoNe,Choice,dává smysl,1610985455514,27_TG,TRUE,NULL
1610985941,fb4b46785fa9ac2ba8f8aff0635e7f45,PennController,79,0,experiment,NULL,PennController,80,_Trial_,End,1610985456020,27_TG,TRUE,NULL
1610985941,fb4b46785fa9ac2ba8f8aff0635e7f45,PennController,81,0,experiment,NULL,PennController,82,_Trial_,Start,1610985456024,27_RG,TRUE,NULL
1610985941,fb4b46785fa9ac2ba8f8aff0635e7f45,PennController,81,0,experiment,NULL,Scale,anoNe,Choice,dává smysl,1610985459025,27_RG,TRUE,NULL
1610985941,fb4b46785fa9ac2ba8f8aff0635e7f45,PennController,81,0,experiment,NULL,PennController,82,_Trial_,End,1610985459539,27_RG,TRUE,NULL
1610985941,fb4b46785fa9ac2ba8f8aff0635e7f45,PennController,78,0,experiment,NULL,PennController,79,_Trial_,Start,1610985459553,18_RA,FALSE,NULL
1610985941,fb4b46785fa9ac2ba8f8aff0635e7f45,PennController,78,0,experiment,NULL,Scale,anoNe,Choice,nedává smysl,1610985462342,18_RA,FALSE,NULL
1610985941,fb4b46785fa9ac2ba8f8aff0635e7f45,PennController,78,0,experiment,NULL,PennController,79,_Trial_,End,1610985462852,18_RA,FALSE,NULL
1610985941,fb4b46785fa9ac2ba8f8aff0635e7f45,PennController,18,0,experiment,NULL,PennController,19,_Trial_,Start,1610985462857,11_RA,FALSE,NULL
1610985941,fb4b46785fa9ac2ba8f8aff0635e7f45,PennController,18,0,experiment,NULL,Scale,anoNe,Choice,nedává smysl,1610985465737,11_RA,FALSE,NULL
1610985941,fb4b46785fa9ac2ba8f8aff0635e7f45,PennController,18,0,experiment,NULL,PennController,19,_Trial_,End,1610985466247,11_RA,FALSE,NULL
1610985941,fb4b46785fa9ac2ba8f8aff0635e7f45,PennController,49,0,experiment,NULL,PennController,50,_Trial_,Start,1610985466254,13_RG,TRUE,NULL
1610985941,fb4b46785fa9ac2ba8f8aff0635e7f45,PennController,49,0,experiment,NULL,Scale,anoNe,Choice,dává smysl,1610985469387,13_RG,TRUE,NULL
1610985941,fb4b46785fa9ac2ba8f8aff0635e7f45,PennController,49,0,experiment,NULL,PennController,50,_Trial_,End,1610985469904,13_RG,TRUE,NULL
1610985941,fb4b46785fa9ac2ba8f8aff0635e7f45,PennController,21,0,experiment,NULL,PennController,22,_Trial_,Start,1610985469918,10_RG,TRUE,NULL
1610985941,fb4b46785fa9ac2ba8f8aff0635e7f45,PennController,21,0,experiment,NULL,Scale,anoNe,Choice,dává smysl,1610985473762,10_RG,TRUE,NULL
1610985941,fb4b46785fa9ac2ba8f8aff0635e7f45,PennController,21,0,experiment,NULL,PennController,22,_Trial_,End,1610985474272,10_RG,TRUE,NULL
1610985941,fb4b46785fa9ac2ba8f8aff0635e7f45,PennController,32,0,experiment,NULL,PennController,33,_Trial_,Start,1610985474288,3_TA,FALSE,NULL
1610985941,fb4b46785fa9ac2ba8f8aff0635e7f45,PennController,32,0,experiment,NULL,Scale,anoNe,Choice,nedává smysl,1610985478635,3_TA,FALSE,NULL
1610985941,fb4b46785fa9ac2ba8f8aff0635e7f45,PennController,32,0,experiment,NULL,PennController,33,_Trial_,End,1610985479146,3_TA,FALSE,NULL
1610985941,fb4b46785fa9ac2ba8f8aff0635e7f45,PennController,22,0,experiment,NULL,PennController,23,_Trial_,Start,1610985479159,10_RA,FALSE,NULL
1610985941,fb4b46785fa9ac2ba8f8aff0635e7f45,PennController,22,0,experiment,NULL,Scale,anoNe,Choice,nedává smysl,1610985482211,10_RA,FALSE,NULL
1610985941,fb4b46785fa9ac2ba8f8aff0635e7f45,PennController,22,0,experiment,NULL,PennController,23,_Trial_,End,1610985482725,10_RA,FALSE,NULL
1610985941,fb4b46785fa9ac2ba8f8aff0635e7f45,PennController,83,0,experiment,NULL,PennController,84,_Trial_,Start,1610985482740,26_TG,TRUE,NULL
1610985941,fb4b46785fa9ac2ba8f8aff0635e7f45,PennController,83,0,experiment,NULL,Scale,anoNe,Choice,dává smysl,1610985487146,26_TG,TRUE,NULL
1610985941,fb4b46785fa9ac2ba8f8aff0635e7f45,PennController,83,0,experiment,NULL,PennController,84,_Trial_,End,1610985487657,26_TG,TRUE,NULL
1610985941,fb4b46785fa9ac2ba8f8aff0635e7f45,PennController,97,0,experiment,NULL,PennController,98,_Trial_,Start,1610985487666,19_RG,TRUE,NULL
1610985941,fb4b46785fa9ac2ba8f8aff0635e7f45,PennController,97,0,experiment,NULL,Scale,anoNe,Choice,dává smysl,1610985492107,19_RG,TRUE,NULL
1610985941,fb4b46785fa9ac2ba8f8aff0635e7f45,PennController,97,0,experiment,NULL,PennController,98,_Trial_,End,1610985492614,19_RG,TRUE,NULL
1610985941,fb4b46785fa9ac2ba8f8aff0635e7f45,PennController,73,0,experiment,NULL,PennController,74,_Trial_,Start,1610985492620,25_RG,TRUE,NULL
1610985941,fb4b46785fa9ac2ba8f8aff0635e7f45,PennController,73,0,experiment,NULL,Scale,anoNe,Choice,dává smysl,1610985495880,25_RG,TRUE,NULL
1610985941,fb4b46785fa9ac2ba8f8aff0635e7f45,PennController,73,0,experiment,NULL,PennController,74,_Trial_,End,1610985496392,25_RG,TRUE,NULL
1610985941,fb4b46785fa9ac2ba8f8aff0635e7f45,PennController,46,0,experiment,NULL,PennController,47,_Trial_,Start,1610985496402,12_RA,FALSE,NULL
1610985941,fb4b46785fa9ac2ba8f8aff0635e7f45,PennController,46,0,experiment,NULL,Scale,anoNe,Choice,nedává smysl,1610985499606,12_RA,FALSE,NULL
1610985941,fb4b46785fa9ac2ba8f8aff0635e7f45,PennController,46,0,experiment,NULL,PennController,47,_Trial_,End,1610985500118,12_RA,FALSE,NULL
1610985941,fb4b46785fa9ac2ba8f8aff0635e7f45,PennController,26,0,experiment,NULL,PennController,27,_Trial_,Start,1610985500132,1_RA,FALSE,NULL
1610985941,fb4b46785fa9ac2ba8f8aff0635e7f45,PennController,26,0,experiment,NULL,Scale,anoNe,Choice,nedává smysl,1610985503730,1_RA,FALSE,NULL
1610985941,fb4b46785fa9ac2ba8f8aff0635e7f45,PennController,26,0,experiment,NULL,PennController,27,_Trial_,End,1610985504240,1_RA,FALSE,NULL
1610985941,fb4b46785fa9ac2ba8f8aff0635e7f45,PennController,28,0,experiment,NULL,PennController,29,_Trial_,Start,1610985504245,8_TA,FALSE,NULL
1610985941,fb4b46785fa9ac2ba8f8aff0635e7f45,PennController,28,0,experiment,NULL,Scale,anoNe,Choice,nedává smysl,1610985507808,8_TA,FALSE,NULL
1610985941,fb4b46785fa9ac2ba8f8aff0635e7f45,PennController,28,0,experiment,NULL,PennController,29,_Trial_,End,1610985508321,8_TA,FALSE,NULL
1610985941,fb4b46785fa9ac2ba8f8aff0635e7f45,PennController,65,0,experiment,NULL,PennController,66,_Trial_,Start,1610985508336,15_RG,TRUE,NULL
1610985941,fb4b46785fa9ac2ba8f8aff0635e7f45,PennController,65,0,experiment,NULL,Scale,anoNe,Choice,nedává smysl,1610985514041,15_RG,TRUE,NULL
1610985941,fb4b46785fa9ac2ba8f8aff0635e7f45,PennController,65,0,experiment,NULL,PennController,66,_Trial_,End,1610985514553,15_RG,TRUE,NULL
1610985941,fb4b46785fa9ac2ba8f8aff0635e7f45,PennController,41,0,experiment,NULL,PennController,42,_Trial_,Start,1610985514568,16_RG,TRUE,NULL
1610985941,fb4b46785fa9ac2ba8f8aff0635e7f45,PennController,41,0,experiment,NULL,Scale,anoNe,Choice,dává smysl,1610985517711,16_RG,TRUE,NULL
1610985941,fb4b46785fa9ac2ba8f8aff0635e7f45,PennController,41,0,experiment,NULL,PennController,42,_Trial_,End,1610985518268,16_RG,TRUE,NULL
1610985941,fb4b46785fa9ac2ba8f8aff0635e7f45,PennController,75,0,experiment,NULL,PennController,76,_Trial_,Start,1610985518288,18_TG,TRUE,NULL
1610985941,fb4b46785fa9ac2ba8f8aff0635e7f45,PennController,75,0,experiment,NULL,Scale,anoNe,Choice,dává smysl,1610985521447,18_TG,TRUE,NULL
1610985941,fb4b46785fa9ac2ba8f8aff0635e7f45,PennController,75,0,experiment,NULL,PennController,76,_Trial_,End,1610985521961,18_TG,TRUE,NULL
1610985941,fb4b46785fa9ac2ba8f8aff0635e7f45,PennController,16,0,experiment,NULL,PennController,17,_Trial_,Start,1610985521975,11_TA,FALSE,NULL
1610985941,fb4b46785fa9ac2ba8f8aff0635e7f45,PennController,16,0,experiment,NULL,Scale,anoNe,Choice,nedává smysl,1610985526128,11_TA,FALSE,NULL
1610985941,fb4b46785fa9ac2ba8f8aff0635e7f45,PennController,16,0,experiment,NULL,PennController,17,_Trial_,End,1610985526641,11_TA,FALSE,NULL
1610985941,fb4b46785fa9ac2ba8f8aff0635e7f45,PennController,40,0,experiment,NULL,PennController,41,_Trial_,Start,1610985526655,16_TA,FALSE,NULL
1610985941,fb4b46785fa9ac2ba8f8aff0635e7f45,PennController,40,0,experiment,NULL,Scale,anoNe,Choice,nedává smysl,1610985530746,16_TA,FALSE,NULL
1610985941,fb4b46785fa9ac2ba8f8aff0635e7f45,PennController,40,0,experiment,NULL,PennController,41,_Trial_,End,1610985531255,16_TA,FALSE,NULL
1610985941,fb4b46785fa9ac2ba8f8aff0635e7f45,PennController,118,0,experiment,NULL,PennController,119,_Trial_,Start,1610985531262,21_RA,FALSE,NULL
1610985941,fb4b46785fa9ac2ba8f8aff0635e7f45,PennController,118,0,experiment,NULL,Scale,anoNe,Choice,nedává smysl,1610985538746,21_RA,FALSE,NULL
1610985941,fb4b46785fa9ac2ba8f8aff0635e7f45,PennController,118,0,experiment,NULL,PennController,119,_Trial_,End,1610985539258,21_RA,FALSE,NULL
1610985941,fb4b46785fa9ac2ba8f8aff0635e7f45,PennController,126,0,experiment,NULL,PennController,127,_Trial_,Start,1610985539271,22_RA,FALSE,NULL
1610985941,fb4b46785fa9ac2ba8f8aff0635e7f45,PennController,126,0,experiment,NULL,Scale,anoNe,Choice,nedává smysl,1610985542299,22_RA,FALSE,NULL
1610985941,fb4b46785fa9ac2ba8f8aff0635e7f45,PennController,126,0,experiment,NULL,PennController,127,_Trial_,End,1610985542812,22_RA,FALSE,NULL
1610985941,fb4b46785fa9ac2ba8f8aff0635e7f45,PennController,57,0,experiment,NULL,PennController,58,_Trial_,Start,1610985542826,14_RG,TRUE,NULL
1610985941,fb4b46785fa9ac2ba8f8aff0635e7f45,PennController,57,0,experiment,NULL,Scale,anoNe,Choice,dává smysl,1610985545896,14_RG,TRUE,NULL
1610985941,fb4b46785fa9ac2ba8f8aff0635e7f45,PennController,57,0,experiment,NULL,PennController,58,_Trial_,End,1610985546407,14_RG,TRUE,NULL
1610985941,fb4b46785fa9ac2ba8f8aff0635e7f45,PennController,72,0,experiment,NULL,PennController,73,_Trial_,Start,1610985546416,25_TA,FALSE,NULL
1610985941,fb4b46785fa9ac2ba8f8aff0635e7f45,PennController,72,0,experiment,NULL,Scale,anoNe,Choice,nedává smysl,1610985550680,25_TA,FALSE,NULL
1610985941,fb4b46785fa9ac2ba8f8aff0635e7f45,PennController,72,0,experiment,NULL,PennController,73,_Trial_,End,1610985551193,25_TA,FALSE,NULL
1610985941,fb4b46785fa9ac2ba8f8aff0635e7f45,PennController,77,0,experiment,NULL,PennController,78,_Trial_,Start,1610985551207,18_RG,TRUE,NULL
1610985941,fb4b46785fa9ac2ba8f8aff0635e7f45,PennController,77,0,experiment,NULL,Scale,anoNe,Choice,dává smysl,1610985554705,18_RG,TRUE,NULL
1610985941,fb4b46785fa9ac2ba8f8aff0635e7f45,PennController,77,0,experiment,NULL,PennController,78,_Trial_,End,1610985555216,18_RG,TRUE,NULL
1610985941,fb4b46785fa9ac2ba8f8aff0635e7f45,PennController,93,0,experiment,NULL,PennController,94,_Trial_,Start,1610985555230,24_RG,TRUE,NULL
1610985941,fb4b46785fa9ac2ba8f8aff0635e7f45,PennController,93,0,experiment,NULL,Scale,anoNe,Choice,dává smysl,1610985560022,24_RG,TRUE,NULL
1610985941,fb4b46785fa9ac2ba8f8aff0635e7f45,PennController,93,0,experiment,NULL,PennController,94,_Trial_,End,1610985560536,24_RG,TRUE,NULL
1610985941,fb4b46785fa9ac2ba8f8aff0635e7f45,PennController,45,0,experiment,NULL,PennController,46,_Trial_,Start,1610985560550,12_RG,TRUE,NULL
1610985941,fb4b46785fa9ac2ba8f8aff0635e7f45,PennController,45,0,experiment,NULL,Scale,anoNe,Choice,dává smysl,1610985563757,12_RG,TRUE,NULL
1610985941,fb4b46785fa9ac2ba8f8aff0635e7f45,PennController,45,0,experiment,NULL,PennController,46,_Trial_,End,1610985564275,12_RG,TRUE,NULL
1610985941,fb4b46785fa9ac2ba8f8aff0635e7f45,PennController,102,0,experiment,NULL,PennController,103,_Trial_,Start,1610985564287,20_RA,FALSE,NULL
1610985941,fb4b46785fa9ac2ba8f8aff0635e7f45,PennController,102,0,experiment,NULL,Scale,anoNe,Choice,nedává smysl,1610985567992,20_RA,FALSE,NULL
1610985941,fb4b46785fa9ac2ba8f8aff0635e7f45,PennController,102,0,experiment,NULL,PennController,103,_Trial_,End,1610985568508,20_RA,FALSE,NULL
1610985941,fb4b46785fa9ac2ba8f8aff0635e7f45,PennController,58,0,experiment,NULL,PennController,59,_Trial_,Start,1610985568522,14_RA,FALSE,NULL
1610985941,fb4b46785fa9ac2ba8f8aff0635e7f45,PennController,58,0,experiment,NULL,Scale,anoNe,Choice,nedává smysl,1610985571918,14_RA,FALSE,NULL
1610985941,fb4b46785fa9ac2ba8f8aff0635e7f45,PennController,58,0,experiment,NULL,PennController,59,_Trial_,End,1610985572426,14_RA,FALSE,NULL
1610985941,fb4b46785fa9ac2ba8f8aff0635e7f45,PennController,121,0,experiment,NULL,PennController,122,_Trial_,Start,1610985572429,30_RG,TRUE,NULL
1610985941,fb4b46785fa9ac2ba8f8aff0635e7f45,PennController,121,0,experiment,NULL,Scale,anoNe,Choice,dává smysl,1610985575985,30_RG,TRUE,NULL
1610985941,fb4b46785fa9ac2ba8f8aff0635e7f45,PennController,121,0,experiment,NULL,PennController,122,_Trial_,End,1610985576495,30_RG,TRUE,NULL
1610985941,fb4b46785fa9ac2ba8f8aff0635e7f45,PennController,29,0,experiment,NULL,PennController,30,_Trial_,Start,1610985576500,8_RG,TRUE,NULL
1610985941,fb4b46785fa9ac2ba8f8aff0635e7f45,PennController,29,0,experiment,NULL,Scale,anoNe,Choice,dává smysl,1610985580881,8_RG,TRUE,NULL
1610985941,fb4b46785fa9ac2ba8f8aff0635e7f45,PennController,29,0,experiment,NULL,PennController,30,_Trial_,End,1610985581388,8_RG,TRUE,NULL
1610985941,fb4b46785fa9ac2ba8f8aff0635e7f45,PennController,106,0,experiment,NULL,PennController,107,_Trial_,Start,1610985581393,32_RA,FALSE,NULL
1610985941,fb4b46785fa9ac2ba8f8aff0635e7f45,PennController,106,0,experiment,NULL,Scale,anoNe,Choice,nedává smysl,1610985584651,32_RA,FALSE,NULL
1610985941,fb4b46785fa9ac2ba8f8aff0635e7f45,PennController,106,0,experiment,NULL,PennController,107,_Trial_,End,1610985585163,32_RA,FALSE,NULL
1610985941,fb4b46785fa9ac2ba8f8aff0635e7f45,PennController,133,0,experiment,NULL,PennController,134,_Trial_,Start,1610985585177,23_RG,TRUE,NULL
1610985941,fb4b46785fa9ac2ba8f8aff0635e7f45,PennController,133,0,experiment,NULL,Scale,anoNe,Choice,dává smysl,1610985588566,23_RG,TRUE,NULL
1610985941,fb4b46785fa9ac2ba8f8aff0635e7f45,PennController,133,0,experiment,NULL,PennController,134,_Trial_,End,1610985589079,23_RG,TRUE,NULL
1610985941,fb4b46785fa9ac2ba8f8aff0635e7f45,PennController,35,0,experiment,NULL,PennController,36,_Trial_,Start,1610985589087,4_TG,TRUE,NULL
1610985941,fb4b46785fa9ac2ba8f8aff0635e7f45,PennController,35,0,experiment,NULL,Scale,anoNe,Choice,dává smysl,1610985595682,4_TG,TRUE,NULL
1610985941,fb4b46785fa9ac2ba8f8aff0635e7f45,PennController,35,0,experiment,NULL,PennController,36,_Trial_,End,1610985596196,4_TG,TRUE,NULL
1610985941,fb4b46785fa9ac2ba8f8aff0635e7f45,PennController,107,0,experiment,NULL,PennController,108,_Trial_,Start,1610985596209,28_TG,TRUE,NULL
1610985941,fb4b46785fa9ac2ba8f8aff0635e7f45,PennController,107,0,experiment,NULL,Scale,anoNe,Choice,dává smysl,1610985602552,28_TG,TRUE,NULL
1610985941,fb4b46785fa9ac2ba8f8aff0635e7f45,PennController,107,0,experiment,NULL,PennController,108,_Trial_,End,1610985603066,28_TG,TRUE,NULL
1610985941,fb4b46785fa9ac2ba8f8aff0635e7f45,PennController,123,0,experiment,NULL,PennController,124,_Trial_,Start,1610985603080,22_TG,TRUE,NULL
1610985941,fb4b46785fa9ac2ba8f8aff0635e7f45,PennController,123,0,experiment,NULL,Scale,anoNe,Choice,dává smysl,1610985608351,22_TG,TRUE,NULL
1610985941,fb4b46785fa9ac2ba8f8aff0635e7f45,PennController,123,0,experiment,NULL,PennController,124,_Trial_,End,1610985608859,22_TG,TRUE,NULL
1610985941,fb4b46785fa9ac2ba8f8aff0635e7f45,PennController,13,0,experiment,NULL,PennController,14,_Trial_,Start,1610985608863,2_RG,TRUE,NULL
1610985941,fb4b46785fa9ac2ba8f8aff0635e7f45,PennController,13,0,experiment,NULL,Scale,anoNe,Choice,dává smysl,1610985612256,2_RG,TRUE,NULL
1610985941,fb4b46785fa9ac2ba8f8aff0635e7f45,PennController,13,0,experiment,NULL,PennController,14,_Trial_,End,1610985612771,2_RG,TRUE,NULL
1610985941,fb4b46785fa9ac2ba8f8aff0635e7f45,PennController,96,0,experiment,NULL,PennController,97,_Trial_,Start,1610985612783,19_TA,FALSE,NULL
1610985941,fb4b46785fa9ac2ba8f8aff0635e7f45,PennController,96,0,experiment,NULL,Scale,anoNe,Choice,nedává smysl,1610985616005,19_TA,FALSE,NULL
1610985941,fb4b46785fa9ac2ba8f8aff0635e7f45,PennController,96,0,experiment,NULL,PennController,97,_Trial_,End,1610985616514,19_TA,FALSE,NULL
1610985941,fb4b46785fa9ac2ba8f8aff0635e7f45,PennController,120,0,experiment,NULL,PennController,121,_Trial_,Start,1610985616529,30_TA,FALSE,NULL
1610985941,fb4b46785fa9ac2ba8f8aff0635e7f45,PennController,120,0,experiment,NULL,Scale,anoNe,Choice,nedává smysl,1610985620484,30_TA,FALSE,NULL
1610985941,fb4b46785fa9ac2ba8f8aff0635e7f45,PennController,120,0,experiment,NULL,PennController,121,_Trial_,End,1610985620996,30_TA,FALSE,NULL
1610985941,fb4b46785fa9ac2ba8f8aff0635e7f45,PennController,131,0,experiment,NULL,PennController,132,_Trial_,Start,1610985621022,23_TG,TRUE,NULL
1610985941,fb4b46785fa9ac2ba8f8aff0635e7f45,PennController,131,0,experiment,NULL,Scale,anoNe,Choice,dává smysl,1610985624295,23_TG,TRUE,NULL
1610985941,fb4b46785fa9ac2ba8f8aff0635e7f45,PennController,131,0,experiment,NULL,PennController,132,_Trial_,End,1610985624809,23_TG,TRUE,NULL
1610985941,fb4b46785fa9ac2ba8f8aff0635e7f45,PennController,67,0,experiment,NULL,PennController,68,_Trial_,Start,1610985624815,7_TG,TRUE,NULL
1610985941,fb4b46785fa9ac2ba8f8aff0635e7f45,PennController,67,0,experiment,NULL,Scale,anoNe,Choice,dává smysl,1610985627209,7_TG,TRUE,NULL
1610985941,fb4b46785fa9ac2ba8f8aff0635e7f45,PennController,67,0,experiment,NULL,PennController,68,_Trial_,End,1610985627718,7_TG,TRUE,NULL
1610985941,fb4b46785fa9ac2ba8f8aff0635e7f45,PennController,34,0,experiment,NULL,PennController,35,_Trial_,Start,1610985627722,3_RA,FALSE,NULL
1610985941,fb4b46785fa9ac2ba8f8aff0635e7f45,PennController,34,0,experiment,NULL,Scale,anoNe,Choice,nedává smysl,1610985631366,3_RA,FALSE,NULL
1610985941,fb4b46785fa9ac2ba8f8aff0635e7f45,PennController,34,0,experiment,NULL,PennController,35,_Trial_,End,1610985631875,3_RA,FALSE,NULL
1610985941,fb4b46785fa9ac2ba8f8aff0635e7f45,PennController,85,0,experiment,NULL,PennController,86,_Trial_,Start,1610985631879,26_RG,TRUE,NULL
1610985941,fb4b46785fa9ac2ba8f8aff0635e7f45,PennController,85,0,experiment,NULL,Scale,anoNe,Choice,dává smysl,1610985636110,26_RG,TRUE,NULL
1610985941,fb4b46785fa9ac2ba8f8aff0635e7f45,PennController,85,0,experiment,NULL,PennController,86,_Trial_,End,1610985636618,26_RG,TRUE,NULL
1610985941,fb4b46785fa9ac2ba8f8aff0635e7f45,PennController,115,0,experiment,NULL,PennController,116,_Trial_,Start,1610985636623,21_TG,TRUE,NULL
1610985941,fb4b46785fa9ac2ba8f8aff0635e7f45,PennController,115,0,experiment,NULL,Scale,anoNe,Choice,dává smysl,1610985640746,21_TG,TRUE,NULL
1610985941,fb4b46785fa9ac2ba8f8aff0635e7f45,PennController,115,0,experiment,NULL,PennController,116,_Trial_,End,1610985641259,21_TG,TRUE,NULL
1610985941,fb4b46785fa9ac2ba8f8aff0635e7f45,PennController,104,0,experiment,NULL,PennController,105,_Trial_,Start,1610985641273,32_TA,FALSE,NULL
1610985941,fb4b46785fa9ac2ba8f8aff0635e7f45,PennController,104,0,experiment,NULL,Scale,anoNe,Choice,nedává smysl,1610985645057,32_TA,FALSE,NULL
1610985941,fb4b46785fa9ac2ba8f8aff0635e7f45,PennController,104,0,experiment,NULL,PennController,105,_Trial_,End,1610985645570,32_TA,FALSE,NULL
1610985941,fb4b46785fa9ac2ba8f8aff0635e7f45,PennController,94,0,experiment,NULL,PennController,95,_Trial_,Start,1610985645585,24_RA,FALSE,NULL
1610985941,fb4b46785fa9ac2ba8f8aff0635e7f45,PennController,94,0,experiment,NULL,Scale,anoNe,Choice,nedává smysl,1610985648736,24_RA,FALSE,NULL
1610985941,fb4b46785fa9ac2ba8f8aff0635e7f45,PennController,94,0,experiment,NULL,PennController,95,_Trial_,End,1610985649251,24_RA,FALSE,NULL
1610985941,fb4b46785fa9ac2ba8f8aff0635e7f45,PennController,71,0,experiment,NULL,PennController,72,_Trial_,Start,1610985649264,25_TG,TRUE,NULL
1610985941,fb4b46785fa9ac2ba8f8aff0635e7f45,PennController,71,0,experiment,NULL,Scale,anoNe,Choice,dává smysl,1610985660499,25_TG,TRUE,NULL
1610985941,fb4b46785fa9ac2ba8f8aff0635e7f45,PennController,71,0,experiment,NULL,PennController,72,_Trial_,End,1610985661037,25_TG,TRUE,NULL
1610985941,fb4b46785fa9ac2ba8f8aff0635e7f45,PennController,89,0,experiment,NULL,PennController,90,_Trial_,Start,1610985661045,17_RG,TRUE,NULL
1610985941,fb4b46785fa9ac2ba8f8aff0635e7f45,PennController,89,0,experiment,NULL,Scale,anoNe,Choice,dává smysl,1610985664165,17_RG,TRUE,NULL
1610985941,fb4b46785fa9ac2ba8f8aff0635e7f45,PennController,89,0,experiment,NULL,PennController,90,_Trial_,End,1610985664725,17_RG,TRUE,NULL
1610985941,fb4b46785fa9ac2ba8f8aff0635e7f45,PennController,61,0,experiment,NULL,PennController,62,_Trial_,Start,1610985664745,6_RG,TRUE,NULL
1610985941,fb4b46785fa9ac2ba8f8aff0635e7f45,PennController,61,0,experiment,NULL,Scale,anoNe,Choice,dává smysl,1610985668379,6_RG,TRUE,NULL
1610985941,fb4b46785fa9ac2ba8f8aff0635e7f45,PennController,61,0,experiment,NULL,PennController,62,_Trial_,End,1610985668888,6_RG,TRUE,NULL
1610985941,fb4b46785fa9ac2ba8f8aff0635e7f45,PennController,101,0,experiment,NULL,PennController,102,_Trial_,Start,1610985668900,20_RG,TRUE,NULL
1610985941,fb4b46785fa9ac2ba8f8aff0635e7f45,PennController,101,0,experiment,NULL,Scale,anoNe,Choice,dává smysl,1610985672379,20_RG,TRUE,NULL
1610985941,fb4b46785fa9ac2ba8f8aff0635e7f45,PennController,101,0,experiment,NULL,PennController,102,_Trial_,End,1610985672892,20_RG,TRUE,NULL
1610985941,fb4b46785fa9ac2ba8f8aff0635e7f45,PennController,7,0,experiment,NULL,PennController,8,_Trial_,Start,1610985672901,9_TG,TRUE,NULL
1610985941,fb4b46785fa9ac2ba8f8aff0635e7f45,PennController,7,0,experiment,NULL,Scale,anoNe,Choice,dává smysl,1610985676896,9_TG,TRUE,NULL
1610985941,fb4b46785fa9ac2ba8f8aff0635e7f45,PennController,7,0,experiment,NULL,PennController,8,_Trial_,End,1610985677413,9_TG,TRUE,NULL
1610985941,fb4b46785fa9ac2ba8f8aff0635e7f45,PennController,76,0,experiment,NULL,PennController,77,_Trial_,Start,1610985677426,18_TA,FALSE,NULL
1610985941,fb4b46785fa9ac2ba8f8aff0635e7f45,PennController,76,0,experiment,NULL,Scale,anoNe,Choice,nedává smysl,1610985680658,18_TA,FALSE,NULL
1610985941,fb4b46785fa9ac2ba8f8aff0635e7f45,PennController,76,0,experiment,NULL,PennController,77,_Trial_,End,1610985681173,18_TA,FALSE,NULL
1610985941,fb4b46785fa9ac2ba8f8aff0635e7f45,PennController,69,0,experiment,NULL,PennController,70,_Trial_,Start,1610985681177,7_RG,TRUE,NULL
1610985941,fb4b46785fa9ac2ba8f8aff0635e7f45,PennController,69,0,experiment,NULL,Scale,anoNe,Choice,dává smysl,1610985684330,7_RG,TRUE,NULL
1610985941,fb4b46785fa9ac2ba8f8aff0635e7f45,PennController,69,0,experiment,NULL,PennController,70,_Trial_,End,1610985684840,7_RG,TRUE,NULL
1610985941,fb4b46785fa9ac2ba8f8aff0635e7f45,PennController,80,0,experiment,NULL,PennController,81,_Trial_,Start,1610985684848,27_TA,FALSE,NULL
1610985941,fb4b46785fa9ac2ba8f8aff0635e7f45,PennController,80,0,experiment,NULL,Scale,anoNe,Choice,nedává smysl,1610985688636,27_TA,FALSE,NULL
1610985941,fb4b46785fa9ac2ba8f8aff0635e7f45,PennController,80,0,experiment,NULL,PennController,81,_Trial_,End,1610985689148,27_TA,FALSE,NULL
1610985941,fb4b46785fa9ac2ba8f8aff0635e7f45,PennController,53,0,experiment,NULL,PennController,54,_Trial_,Start,1610985689161,5_RG,TRUE,NULL
1610985941,fb4b46785fa9ac2ba8f8aff0635e7f45,PennController,53,0,experiment,NULL,Scale,anoNe,Choice,dává smysl,1610985691798,5_RG,TRUE,NULL
1610985941,fb4b46785fa9ac2ba8f8aff0635e7f45,PennController,53,0,experiment,NULL,PennController,54,_Trial_,End,1610985692310,5_RG,TRUE,NULL
1610985941,fb4b46785fa9ac2ba8f8aff0635e7f45,PennController,111,0,experiment,NULL,PennController,112,_Trial_,Start,1610985692319,29_TG,TRUE,NULL
1610985941,fb4b46785fa9ac2ba8f8aff0635e7f45,PennController,111,0,experiment,NULL,Scale,anoNe,Choice,dává smysl,1610985699942,29_TG,TRUE,NULL
1610985941,fb4b46785fa9ac2ba8f8aff0635e7f45,PennController,111,0,experiment,NULL,PennController,112,_Trial_,End,1610985700453,29_TG,TRUE,NULL
1610985941,fb4b46785fa9ac2ba8f8aff0635e7f45,PennController,90,0,experiment,NULL,PennController,91,_Trial_,Start,1610985700466,17_RA,FALSE,NULL
1610985941,fb4b46785fa9ac2ba8f8aff0635e7f45,PennController,90,0,experiment,NULL,Scale,anoNe,Choice,nedává smysl,1610985703302,17_RA,FALSE,NULL
1610985941,fb4b46785fa9ac2ba8f8aff0635e7f45,PennController,90,0,experiment,NULL,PennController,91,_Trial_,End,1610985703813,17_RA,FALSE,NULL
1610985941,fb4b46785fa9ac2ba8f8aff0635e7f45,PennController,66,0,experiment,NULL,PennController,67,_Trial_,Start,1610985703827,15_RA,FALSE,NULL
1610985941,fb4b46785fa9ac2ba8f8aff0635e7f45,PennController,66,0,experiment,NULL,Scale,anoNe,Choice,nedává smysl,1610985706539,15_RA,FALSE,NULL
1610985941,fb4b46785fa9ac2ba8f8aff0635e7f45,PennController,66,0,experiment,NULL,PennController,67,_Trial_,End,1610985707049,15_RA,FALSE,NULL
1610985941,fb4b46785fa9ac2ba8f8aff0635e7f45,PennController,38,0,experiment,NULL,PennController,39,_Trial_,Start,1610985707052,4_RA,FALSE,NULL
1610985941,fb4b46785fa9ac2ba8f8aff0635e7f45,PennController,38,0,experiment,NULL,Scale,anoNe,Choice,nedává smysl,1610985710392,4_RA,FALSE,NULL
1610985941,fb4b46785fa9ac2ba8f8aff0635e7f45,PennController,38,0,experiment,NULL,PennController,39,_Trial_,End,1610985710906,4_RA,FALSE,NULL
1610985941,fb4b46785fa9ac2ba8f8aff0635e7f45,PennController,117,0,experiment,NULL,PennController,118,_Trial_,Start,1610985710919,21_RG,TRUE,NULL
1610985941,fb4b46785fa9ac2ba8f8aff0635e7f45,PennController,117,0,experiment,NULL,Scale,anoNe,Choice,dává smysl,1610985714641,21_RG,TRUE,NULL
1610985941,fb4b46785fa9ac2ba8f8aff0635e7f45,PennController,117,0,experiment,NULL,PennController,118,_Trial_,End,1610985715150,21_RG,TRUE,NULL
1610985941,fb4b46785fa9ac2ba8f8aff0635e7f45,PennController,127,0,experiment,NULL,PennController,128,_Trial_,Start,1610985715156,31_TG,TRUE,NULL
1610985941,fb4b46785fa9ac2ba8f8aff0635e7f45,PennController,127,0,experiment,NULL,Scale,anoNe,Choice,dává smysl,1610985719236,31_TG,TRUE,NULL
1610985941,fb4b46785fa9ac2ba8f8aff0635e7f45,PennController,127,0,experiment,NULL,PennController,128,_Trial_,End,1610985719750,31_TG,TRUE,NULL
1610985941,fb4b46785fa9ac2ba8f8aff0635e7f45,PennController,134,0,experiment,NULL,PennController,135,_Trial_,Start,1610985719759,23_RA,FALSE,NULL
1610985941,fb4b46785fa9ac2ba8f8aff0635e7f45,PennController,134,0,experiment,NULL,Scale,anoNe,Choice,nedává smysl,1610985723289,23_RA,FALSE,NULL
1610985941,fb4b46785fa9ac2ba8f8aff0635e7f45,PennController,134,0,experiment,NULL,PennController,135,_Trial_,End,1610985723797,23_RA,FALSE,NULL
1610985941,fb4b46785fa9ac2ba8f8aff0635e7f45,PennController,112,0,experiment,NULL,PennController,113,_Trial_,Start,1610985723802,29_TA,FALSE,NULL
1610985941,fb4b46785fa9ac2ba8f8aff0635e7f45,PennController,112,0,experiment,NULL,Scale,anoNe,Choice,nedává smysl,1610985727755,29_TA,FALSE,NULL
1610985941,fb4b46785fa9ac2ba8f8aff0635e7f45,PennController,112,0,experiment,NULL,PennController,113,_Trial_,End,1610985728268,29_TA,FALSE,NULL
1610985941,fb4b46785fa9ac2ba8f8aff0635e7f45,PennController,108,0,experiment,NULL,PennController,109,_Trial_,Start,1610985728281,28_TA,FALSE,NULL
1610985941,fb4b46785fa9ac2ba8f8aff0635e7f45,PennController,108,0,experiment,NULL,Scale,anoNe,Choice,nedává smysl,1610985731412,28_TA,FALSE,NULL
1610985941,fb4b46785fa9ac2ba8f8aff0635e7f45,PennController,108,0,experiment,NULL,PennController,109,_Trial_,End,1610985731920,28_TA,FALSE,NULL
1610985941,fb4b46785fa9ac2ba8f8aff0635e7f45,PennController,24,0,experiment,NULL,PennController,25,_Trial_,Start,1610985731923,1_TA,FALSE,NULL
1610985941,fb4b46785fa9ac2ba8f8aff0635e7f45,PennController,24,0,experiment,NULL,Scale,anoNe,Choice,nedává smysl,1610985735787,1_TA,FALSE,NULL
1610985941,fb4b46785fa9ac2ba8f8aff0635e7f45,PennController,24,0,experiment,NULL,PennController,25,_Trial_,End,1610985736302,1_TA,FALSE,NULL
1610985941,fb4b46785fa9ac2ba8f8aff0635e7f45,PennController,43,0,experiment,NULL,PennController,44,_Trial_,Start,1610985736316,12_TG,TRUE,NULL
1610985941,fb4b46785fa9ac2ba8f8aff0635e7f45,PennController,43,0,experiment,NULL,Scale,anoNe,Choice,dává smysl,1610985740319,12_TG,TRUE,NULL
1610985941,fb4b46785fa9ac2ba8f8aff0635e7f45,PennController,43,0,experiment,NULL,PennController,44,_Trial_,End,1610985740830,12_TG,TRUE,NULL
1610985941,fb4b46785fa9ac2ba8f8aff0635e7f45,PennController,91,0,experiment,NULL,PennController,92,_Trial_,Start,1610985740840,24_TG,TRUE,NULL
1610985941,fb4b46785fa9ac2ba8f8aff0635e7f45,PennController,91,0,experiment,NULL,Scale,anoNe,Choice,dává smysl,1610985744133,24_TG,TRUE,NULL
1610985941,fb4b46785fa9ac2ba8f8aff0635e7f45,PennController,91,0,experiment,NULL,PennController,92,_Trial_,End,1610985744645,24_TG,TRUE,NULL
1610985941,fb4b46785fa9ac2ba8f8aff0635e7f45,PennController,130,0,experiment,NULL,PennController,131,_Trial_,Start,1610985744658,31_RA,FALSE,NULL
1610985941,fb4b46785fa9ac2ba8f8aff0635e7f45,PennController,130,0,experiment,NULL,Scale,anoNe,Choice,nedává smysl,1610985747681,31_RA,FALSE,NULL
1610985941,fb4b46785fa9ac2ba8f8aff0635e7f45,PennController,130,0,experiment,NULL,PennController,131,_Trial_,End,1610985748193,31_RA,FALSE,NULL
1610985941,fb4b46785fa9ac2ba8f8aff0635e7f45,PennController,51,0,experiment,NULL,PennController,52,_Trial_,Start,1610985748207,5_TG,TRUE,NULL
1610985941,fb4b46785fa9ac2ba8f8aff0635e7f45,PennController,51,0,experiment,NULL,Scale,anoNe,Choice,dává smysl,1610985751610,5_TG,TRUE,NULL
1610985941,fb4b46785fa9ac2ba8f8aff0635e7f45,PennController,51,0,experiment,NULL,PennController,52,_Trial_,End,1610985752118,5_TG,TRUE,NULL
1610985941,fb4b46785fa9ac2ba8f8aff0635e7f45,PennController,119,0,experiment,NULL,PennController,120,_Trial_,Start,1610985752126,30_TG,TRUE,NULL
1610985941,fb4b46785fa9ac2ba8f8aff0635e7f45,PennController,119,0,experiment,NULL,Scale,anoNe,Choice,dává smysl,1610985755418,30_TG,TRUE,NULL
1610985941,fb4b46785fa9ac2ba8f8aff0635e7f45,PennController,119,0,experiment,NULL,PennController,120,_Trial_,End,1610985755926,30_TG,TRUE,NULL
1610985941,fb4b46785fa9ac2ba8f8aff0635e7f45,PennController,17,0,experiment,NULL,PennController,18,_Trial_,Start,1610985755929,11_RG,TRUE,NULL
1610985941,fb4b46785fa9ac2ba8f8aff0635e7f45,PennController,17,0,experiment,NULL,Scale,anoNe,Choice,dává smysl,1610985758922,11_RG,TRUE,NULL
1610985941,fb4b46785fa9ac2ba8f8aff0635e7f45,PennController,17,0,experiment,NULL,PennController,18,_Trial_,End,1610985759436,11_RG,TRUE,NULL
1610985941,fb4b46785fa9ac2ba8f8aff0635e7f45,PennController,116,0,experiment,NULL,PennController,117,_Trial_,Start,1610985759451,21_TA,FALSE,NULL
1610985941,fb4b46785fa9ac2ba8f8aff0635e7f45,PennController,116,0,experiment,NULL,Scale,anoNe,Choice,nedává smysl,1610985762401,21_TA,FALSE,NULL
1610985941,fb4b46785fa9ac2ba8f8aff0635e7f45,PennController,116,0,experiment,NULL,PennController,117,_Trial_,End,1610985762909,21_TA,FALSE,NULL
1610985941,fb4b46785fa9ac2ba8f8aff0635e7f45,PennController,109,0,experiment,NULL,PennController,110,_Trial_,Start,1610985762914,28_RG,TRUE,NULL
1610985941,fb4b46785fa9ac2ba8f8aff0635e7f45,PennController,109,0,experiment,NULL,Scale,anoNe,Choice,dává smysl,1610985768639,28_RG,TRUE,NULL
1610985941,fb4b46785fa9ac2ba8f8aff0635e7f45,PennController,109,0,experiment,NULL,PennController,110,_Trial_,End,1610985769151,28_RG,TRUE,NULL
1610985941,fb4b46785fa9ac2ba8f8aff0635e7f45,PennController,31,0,experiment,NULL,PennController,32,_Trial_,Start,1610985769165,3_TG,TRUE,NULL
1610985941,fb4b46785fa9ac2ba8f8aff0635e7f45,PennController,31,0,experiment,NULL,Scale,anoNe,Choice,dává smysl,1610985783799,3_TG,TRUE,NULL
1610985941,fb4b46785fa9ac2ba8f8aff0635e7f45,PennController,31,0,experiment,NULL,PennController,32,_Trial_,End,1610985784315,3_TG,TRUE,NULL
1610985941,fb4b46785fa9ac2ba8f8aff0635e7f45,PennController,60,0,experiment,NULL,PennController,61,_Trial_,Start,1610985784329,6_TA,FALSE,NULL
1610985941,fb4b46785fa9ac2ba8f8aff0635e7f45,PennController,60,0,experiment,NULL,Scale,anoNe,Choice,nedává smysl,1610985788397,6_TA,FALSE,NULL
1610985941,fb4b46785fa9ac2ba8f8aff0635e7f45,PennController,60,0,experiment,NULL,PennController,61,_Trial_,End,1610985788908,6_TA,FALSE,NULL
1610985941,fb4b46785fa9ac2ba8f8aff0635e7f45,PennController,25,0,experiment,NULL,PennController,26,_Trial_,Start,1610985788916,1_RG,TRUE,NULL
1610985941,fb4b46785fa9ac2ba8f8aff0635e7f45,PennController,25,0,experiment,NULL,Scale,anoNe,Choice,dává smysl,1610985792009,1_RG,TRUE,NULL
1610985941,fb4b46785fa9ac2ba8f8aff0635e7f45,PennController,25,0,experiment,NULL,PennController,26,_Trial_,End,1610985792521,1_RG,TRUE,NULL
1610985941,fb4b46785fa9ac2ba8f8aff0635e7f45,PennController,98,0,experiment,NULL,PennController,99,_Trial_,Start,1610985792534,19_RA,FALSE,NULL
1610985941,fb4b46785fa9ac2ba8f8aff0635e7f45,PennController,98,0,experiment,NULL,Scale,anoNe,Choice,nedává smysl,1610985795620,19_RA,FALSE,NULL
1610985941,fb4b46785fa9ac2ba8f8aff0635e7f45,PennController,98,0,experiment,NULL,PennController,99,_Trial_,End,1610985796174,19_RA,FALSE,NULL
1610985941,fb4b46785fa9ac2ba8f8aff0635e7f45,PennController,128,0,experiment,NULL,PennController,129,_Trial_,Start,1610985796185,31_TA,FALSE,NULL
1610985941,fb4b46785fa9ac2ba8f8aff0635e7f45,PennController,128,0,experiment,NULL,Scale,anoNe,Choice,nedává smysl,1610985799383,31_TA,FALSE,NULL
1610985941,fb4b46785fa9ac2ba8f8aff0635e7f45,PennController,128,0,experiment,NULL,PennController,129,_Trial_,End,1610985799894,31_TA,FALSE,NULL
1610985941,fb4b46785fa9ac2ba8f8aff0635e7f45,PennController,27,0,experiment,NULL,PennController,28,_Trial_,Start,1610985799907,8_TG,TRUE,NULL
1610985941,fb4b46785fa9ac2ba8f8aff0635e7f45,PennController,27,0,experiment,NULL,Scale,anoNe,Choice,dává smysl,1610985806380,8_TG,TRUE,NULL
1610985941,fb4b46785fa9ac2ba8f8aff0635e7f45,PennController,27,0,experiment,NULL,PennController,28,_Trial_,End,1610985806901,8_TG,TRUE,NULL
1610985941,fb4b46785fa9ac2ba8f8aff0635e7f45,PennController,48,0,experiment,NULL,PennController,49,_Trial_,Start,1610985806913,13_TA,FALSE,NULL
1610985941,fb4b46785fa9ac2ba8f8aff0635e7f45,PennController,48,0,experiment,NULL,Scale,anoNe,Choice,nedává smysl,1610985809806,13_TA,FALSE,NULL
1610985941,fb4b46785fa9ac2ba8f8aff0635e7f45,PennController,48,0,experiment,NULL,PennController,49,_Trial_,End,1610985810312,13_TA,FALSE,NULL
1610985941,fb4b46785fa9ac2ba8f8aff0635e7f45,PennController,132,0,experiment,NULL,PennController,133,_Trial_,Start,1610985810317,23_TA,FALSE,NULL
1610985941,fb4b46785fa9ac2ba8f8aff0635e7f45,PennController,132,0,experiment,NULL,Scale,anoNe,Choice,nedává smysl,1610985813498,23_TA,FALSE,NULL
1610985941,fb4b46785fa9ac2ba8f8aff0635e7f45,PennController,132,0,experiment,NULL,PennController,133,_Trial_,End,1610985814014,23_TA,FALSE,NULL
1610985941,fb4b46785fa9ac2ba8f8aff0635e7f45,PennController,47,0,experiment,NULL,PennController,48,_Trial_,Start,1610985814027,13_TG,TRUE,NULL
1610985941,fb4b46785fa9ac2ba8f8aff0635e7f45,PennController,47,0,experiment,NULL,Scale,anoNe,Choice,dává smysl,1610985824053,13_TG,TRUE,NULL
1610985941,fb4b46785fa9ac2ba8f8aff0635e7f45,PennController,47,0,experiment,NULL,PennController,48,_Trial_,End,1610985824568,13_TG,TRUE,NULL
1610985941,fb4b46785fa9ac2ba8f8aff0635e7f45,PennController,99,0,experiment,NULL,PennController,100,_Trial_,Start,1610985824582,20_TG,TRUE,NULL
1610985941,fb4b46785fa9ac2ba8f8aff0635e7f45,PennController,99,0,experiment,NULL,Scale,anoNe,Choice,dává smysl,1610985827957,20_TG,TRUE,NULL
1610985941,fb4b46785fa9ac2ba8f8aff0635e7f45,PennController,99,0,experiment,NULL,PennController,100,_Trial_,End,1610985828470,20_TG,TRUE,NULL
1610985941,fb4b46785fa9ac2ba8f8aff0635e7f45,PennController,103,0,experiment,NULL,PennController,104,_Trial_,Start,1610985828479,32_TG,TRUE,NULL
1610985941,fb4b46785fa9ac2ba8f8aff0635e7f45,PennController,103,0,experiment,NULL,Scale,anoNe,Choice,dává smysl,1610985833291,32_TG,TRUE,NULL
1610985941,fb4b46785fa9ac2ba8f8aff0635e7f45,PennController,103,0,experiment,NULL,PennController,104,_Trial_,End,1610985833807,32_TG,TRUE,NULL
1610985941,fb4b46785fa9ac2ba8f8aff0635e7f45,PennController,9,0,experiment,NULL,PennController,10,_Trial_,Start,1610985833815,9_RG,TRUE,NULL
1610985941,fb4b46785fa9ac2ba8f8aff0635e7f45,PennController,9,0,experiment,NULL,Scale,anoNe,Choice,dává smysl,1610985836724,9_RG,TRUE,NULL
1610985941,fb4b46785fa9ac2ba8f8aff0635e7f45,PennController,9,0,experiment,NULL,PennController,10,_Trial_,End,1610985837235,9_RG,TRUE,NULL
1610985941,fb4b46785fa9ac2ba8f8aff0635e7f45,PennController,124,0,experiment,NULL,PennController,125,_Trial_,Start,1610985837249,22_TA,FALSE,NULL
1610985941,fb4b46785fa9ac2ba8f8aff0635e7f45,PennController,124,0,experiment,NULL,Scale,anoNe,Choice,nedává smysl,1610985841197,22_TA,FALSE,NULL
1610985941,fb4b46785fa9ac2ba8f8aff0635e7f45,PennController,124,0,experiment,NULL,PennController,125,_Trial_,End,1610985841706,22_TA,FALSE,NULL
1610985941,fb4b46785fa9ac2ba8f8aff0635e7f45,PennController,70,0,experiment,NULL,PennController,71,_Trial_,Start,1610985841715,7_RA,FALSE,NULL
1610985941,fb4b46785fa9ac2ba8f8aff0635e7f45,PennController,70,0,experiment,NULL,Scale,anoNe,Choice,nedává smysl,1610985844892,7_RA,FALSE,NULL
1610985941,fb4b46785fa9ac2ba8f8aff0635e7f45,PennController,70,0,experiment,NULL,PennController,71,_Trial_,End,1610985845405,7_RA,FALSE,NULL
1610985941,fb4b46785fa9ac2ba8f8aff0635e7f45,PennController,12,0,experiment,NULL,PennController,13,_Trial_,Start,1610985845423,2_TA,FALSE,NULL
1610985941,fb4b46785fa9ac2ba8f8aff0635e7f45,PennController,12,0,experiment,NULL,Scale,anoNe,Choice,nedává smysl,1610985848890,2_TA,FALSE,NULL
1610985941,fb4b46785fa9ac2ba8f8aff0635e7f45,PennController,12,0,experiment,NULL,PennController,13,_Trial_,End,1610985849401,2_TA,FALSE,NULL
1610985941,fb4b46785fa9ac2ba8f8aff0635e7f45,PennController,8,0,experiment,NULL,PennController,9,_Trial_,Start,1610985849409,9_TA,FALSE,NULL
1610985941,fb4b46785fa9ac2ba8f8aff0635e7f45,PennController,8,0,experiment,NULL,Scale,anoNe,Choice,nedává smysl,1610985853378,9_TA,FALSE,NULL
1610985941,fb4b46785fa9ac2ba8f8aff0635e7f45,PennController,8,0,experiment,NULL,PennController,9,_Trial_,End,1610985853889,9_TA,FALSE,NULL
1610985941,fb4b46785fa9ac2ba8f8aff0635e7f45,PennController,19,0,experiment,NULL,PennController,20,_Trial_,Start,1610985853902,10_TG,TRUE,NULL
1610985941,fb4b46785fa9ac2ba8f8aff0635e7f45,PennController,19,0,experiment,NULL,Scale,anoNe,Choice,dává smysl,1610985858482,10_TG,TRUE,NULL
1610985941,fb4b46785fa9ac2ba8f8aff0635e7f45,PennController,19,0,experiment,NULL,PennController,20,_Trial_,End,1610985858997,10_TG,TRUE,NULL
1610985941,fb4b46785fa9ac2ba8f8aff0635e7f45,PennController,37,0,experiment,NULL,PennController,38,_Trial_,Start,1610985859008,4_RG,TRUE,NULL
1610985941,fb4b46785fa9ac2ba8f8aff0635e7f45,PennController,37,0,experiment,NULL,Scale,anoNe,Choice,dává smysl,1610985866357,4_RG,TRUE,NULL
1610985941,fb4b46785fa9ac2ba8f8aff0635e7f45,PennController,37,0,experiment,NULL,PennController,38,_Trial_,End,1610985866868,4_RG,TRUE,NULL
1610985941,fb4b46785fa9ac2ba8f8aff0635e7f45,PennController,88,0,experiment,NULL,PennController,89,_Trial_,Start,1610985866881,17_TA,FALSE,NULL
1610985941,fb4b46785fa9ac2ba8f8aff0635e7f45,PennController,88,0,experiment,NULL,Scale,anoNe,Choice,nedává smysl,1610985870313,17_TA,FALSE,NULL
1610985941,fb4b46785fa9ac2ba8f8aff0635e7f45,PennController,88,0,experiment,NULL,PennController,89,_Trial_,End,1610985870819,17_TA,FALSE,NULL
1610985941,fb4b46785fa9ac2ba8f8aff0635e7f45,PennController,92,0,experiment,NULL,PennController,93,_Trial_,Start,1610985870822,24_TA,FALSE,NULL
1610985941,fb4b46785fa9ac2ba8f8aff0635e7f45,PennController,92,0,experiment,NULL,Scale,anoNe,Choice,nedává smysl,1610985874536,24_TA,FALSE,NULL
1610985941,fb4b46785fa9ac2ba8f8aff0635e7f45,PennController,92,0,experiment,NULL,PennController,93,_Trial_,End,1610985875044,24_TA,FALSE,NULL
1610985941,fb4b46785fa9ac2ba8f8aff0635e7f45,PennController,84,0,experiment,NULL,PennController,85,_Trial_,Start,1610985875050,26_TA,FALSE,NULL
1610985941,fb4b46785fa9ac2ba8f8aff0635e7f45,PennController,84,0,experiment,NULL,Scale,anoNe,Choice,nedává smysl,1610985879763,26_TA,FALSE,NULL
1610985941,fb4b46785fa9ac2ba8f8aff0635e7f45,PennController,84,0,experiment,NULL,PennController,85,_Trial_,End,1610985880273,26_TA,FALSE,NULL
1610985941,fb4b46785fa9ac2ba8f8aff0635e7f45,PennController,36,0,experiment,NULL,PennController,37,_Trial_,Start,1610985880286,4_TA,FALSE,NULL
1610985941,fb4b46785fa9ac2ba8f8aff0635e7f45,PennController,36,0,experiment,NULL,Scale,anoNe,Choice,nedává smysl,1610985886385,4_TA,FALSE,NULL
1610985941,fb4b46785fa9ac2ba8f8aff0635e7f45,PennController,36,0,experiment,NULL,PennController,37,_Trial_,End,1610985886902,4_TA,FALSE,NULL
1610985941,fb4b46785fa9ac2ba8f8aff0635e7f45,PennController,20,0,experiment,NULL,PennController,21,_Trial_,Start,1610985886916,10_TA,FALSE,NULL
1610985941,fb4b46785fa9ac2ba8f8aff0635e7f45,PennController,20,0,experiment,NULL,Scale,anoNe,Choice,nedává smysl,1610985890786,10_TA,FALSE,NULL
1610985941,fb4b46785fa9ac2ba8f8aff0635e7f45,PennController,20,0,experiment,NULL,PennController,21,_Trial_,End,1610985891296,10_TA,FALSE,NULL
1610985941,fb4b46785fa9ac2ba8f8aff0635e7f45,PennController,52,0,experiment,NULL,PennController,53,_Trial_,Start,1610985891305,5_TA,FALSE,NULL
1610985941,fb4b46785fa9ac2ba8f8aff0635e7f45,PennController,52,0,experiment,NULL,Scale,anoNe,Choice,nedává smysl,1610985895022,5_TA,FALSE,NULL
1610985941,fb4b46785fa9ac2ba8f8aff0635e7f45,PennController,52,0,experiment,NULL,PennController,53,_Trial_,End,1610985895535,5_TA,FALSE,NULL
1610985941,fb4b46785fa9ac2ba8f8aff0635e7f45,PennController,114,0,experiment,NULL,PennController,115,_Trial_,Start,1610985895549,29_RA,FALSE,NULL
1610985941,fb4b46785fa9ac2ba8f8aff0635e7f45,PennController,114,0,experiment,NULL,Scale,anoNe,Choice,nedává smysl,1610985898446,29_RA,FALSE,NULL
1610985941,fb4b46785fa9ac2ba8f8aff0635e7f45,PennController,114,0,experiment,NULL,PennController,115,_Trial_,End,1610985898961,29_RA,FALSE,NULL
# Columns below this comment are as follows:
# 1. Time results were received.
# 2. MD5 hash of participant's IP address.
# 3. Controller name.
# 4. Item number.
# 5. Element number.
# 6. Type.
# 7. Group.
# 8. PennElementType.
# 9. PennElementName.
# 10. Parameter.
# 11. Value.
# 12. EventTime.
# 13. Comments.
1610985941,fb4b46785fa9ac2ba8f8aff0635e7f45,PennController,135,0,feedback,NULL,PennController,6,_Trial_,Start,1610985898996,NULL
1610985941,fb4b46785fa9ac2ba8f8aff0635e7f45,PennController,135,0,feedback,NULL,TextInput,fbk,Final,Některé věty byly sice gramaticky správné%2C ale významově zvláštní.,1610985942447,NULL
1610985941,fb4b46785fa9ac2ba8f8aff0635e7f45,PennController,135,0,feedback,NULL,TextInput,fbk,First,,1610985913190,Shift
1610985941,fb4b46785fa9ac2ba8f8aff0635e7f45,PennController,135,0,feedback,NULL,PennController,6,_Trial_,End,1610985942449,NULL
#
# Results on Monday January 18 2021 16:07:24 UTC.
# USER AGENT: Mozilla/5.0 (Windows NT 10.0; Win64; x64) AppleWebKit/537.36 (KHTML, like Gecko) Chrome/87.0.4280.141 Safari/537.36
# Design number was non-random = 37
#
# Columns below this comment are as follows:
# 1. Time results were received.
# 2. MD5 hash of participant's IP address.
# 3. Controller name.
# 4. Item number.
# 5. Element number.
# 6. Type.
# 7. Group.
# 8. PennElementType.
# 9. PennElementName.
# 10. Parameter.
# 11. Value.
# 12. EventTime.
# 13. Comments.
1610986044,590426487a788a3279fc98e4570d76ad,PennController,1,0,intro,NULL,PennController,0,_Trial_,Start,1610985476515,NULL
1610986044,590426487a788a3279fc98e4570d76ad,PennController,1,0,intro,NULL,Html,consent,consent,checked,1610985499270,checkbox
1610986044,590426487a788a3279fc98e4570d76ad,PennController,1,0,intro,NULL,PennController,0,_Trial_,End,1610985499270,NULL
1610986044,590426487a788a3279fc98e4570d76ad,PennController,2,0,form,NULL,PennController,1,_Trial_,Start,1610985499274,NULL
1610986044,590426487a788a3279fc98e4570d76ad,PennController,2,0,form,NULL,Html,demographics,age,19,1610985510102,text input
1610986044,590426487a788a3279fc98e4570d76ad,PennController,2,0,form,NULL,Html,demographics,profese,koreanistika,1610985510102,text input
1610986044,590426487a788a3279fc98e4570d76ad,PennController,2,0,form,NULL,Html,demographics,gender,M,1610985510102,radio button
1610986044,590426487a788a3279fc98e4570d76ad,PennController,2,0,form,NULL,Html,demographics,education,highw,1610985510102,radio button
1610986044,590426487a788a3279fc98e4570d76ad,PennController,2,0,form,NULL,Html,demographics,readingProb,no,1610985510102,radio button
1610986044,590426487a788a3279fc98e4570d76ad,PennController,2,0,form,NULL,Html,demographics,lg,cs,1610985510102,radio button
1610986044,590426487a788a3279fc98e4570d76ad,PennController,2,0,form,NULL,PennController,1,_Trial_,End,1610985510102,NULL
1610986044,590426487a788a3279fc98e4570d76ad,PennController,3,0,prePractice,NULL,PennController,2,_Trial_,Start,1610985510103,NULL
1610986044,590426487a788a3279fc98e4570d76ad,PennController,3,0,prePractice,NULL,PennController,2,_Trial_,End,1610985537722,NULL
1610986044,590426487a788a3279fc98e4570d76ad,PennController,4,0,practice1,NULL,PennController,3,_Trial_,Start,1610985537723,NULL
1610986044,590426487a788a3279fc98e4570d76ad,PennController,4,0,practice1,NULL,Scale,anoNe,Choice,dává smysl,1610985542380,NULL
1610986044,590426487a788a3279fc98e4570d76ad,PennController,4,0,practice1,NULL,PennController,3,_Trial_,End,1610985542885,NULL
1610986044,590426487a788a3279fc98e4570d76ad,PennController,5,0,practice2,NULL,PennController,4,_Trial_,Start,1610985542886,NULL
1610986044,590426487a788a3279fc98e4570d76ad,PennController,5,0,practice2,NULL,Scale,anoNe,Choice,nedává smysl,1610985545694,NULL
1610986044,590426487a788a3279fc98e4570d76ad,PennController,5,0,practice2,NULL,PennController,4,_Trial_,End,1610985546198,NULL
1610986044,590426487a788a3279fc98e4570d76ad,PennController,6,0,afterPractice,NULL,PennController,5,_Trial_,Start,1610985546199,NULL
1610986044,590426487a788a3279fc98e4570d76ad,PennController,6,0,afterPractice,NULL,PennController,5,_Trial_,End,1610985570858,NULL
# Columns below this comment are as follows:
# 1. Time results were received.
# 2. MD5 hash of participant's IP address.
# 3. Controller name.
# 4. Item number.
# 5. Element number.
# 6. Type.
# 7. Group.
# 8. PennElementType.
# 9. PennElementName.
# 10. Parameter.
# 11. Value.
# 12. EventTime.
# 13. Item.
# 14. Answer.correct.
# 15. Comments.
1610986044,590426487a788a3279fc98e4570d76ad,PennController,75,0,experiment,NULL,PennController,76,_Trial_,Start,1610985570860,18_TG,TRUE,NULL
1610986044,590426487a788a3279fc98e4570d76ad,PennController,75,0,experiment,NULL,Scale,anoNe,Choice,dává smysl,1610985575134,18_TG,TRUE,NULL
1610986044,590426487a788a3279fc98e4570d76ad,PennController,75,0,experiment,NULL,PennController,76,_Trial_,End,1610985575640,18_TG,TRUE,NULL
1610986044,590426487a788a3279fc98e4570d76ad,PennController,118,0,experiment,NULL,PennController,119,_Trial_,Start,1610985575642,21_RA,FALSE,NULL
1610986044,590426487a788a3279fc98e4570d76ad,PennController,118,0,experiment,NULL,Scale,anoNe,Choice,nedává smysl,1610985579094,21_RA,FALSE,NULL
1610986044,590426487a788a3279fc98e4570d76ad,PennController,118,0,experiment,NULL,PennController,119,_Trial_,End,1610985579598,21_RA,FALSE,NULL
1610986044,590426487a788a3279fc98e4570d76ad,PennController,93,0,experiment,NULL,PennController,94,_Trial_,Start,1610985579600,24_RG,TRUE,NULL
1610986044,590426487a788a3279fc98e4570d76ad,PennController,93,0,experiment,NULL,Scale,anoNe,Choice,dává smysl,1610985582258,24_RG,TRUE,NULL
1610986044,590426487a788a3279fc98e4570d76ad,PennController,93,0,experiment,NULL,PennController,94,_Trial_,End,1610985582760,24_RG,TRUE,NULL
1610986044,590426487a788a3279fc98e4570d76ad,PennController,79,0,experiment,NULL,PennController,80,_Trial_,Start,1610985582761,27_TG,TRUE,NULL
1610986044,590426487a788a3279fc98e4570d76ad,PennController,79,0,experiment,NULL,Scale,anoNe,Choice,dává smysl,1610985585606,27_TG,TRUE,NULL
1610986044,590426487a788a3279fc98e4570d76ad,PennController,79,0,experiment,NULL,PennController,80,_Trial_,End,1610985586109,27_TG,TRUE,NULL
1610986044,590426487a788a3279fc98e4570d76ad,PennController,71,0,experiment,NULL,PennController,72,_Trial_,Start,1610985586110,25_TG,TRUE,NULL
1610986044,590426487a788a3279fc98e4570d76ad,PennController,71,0,experiment,NULL,Scale,anoNe,Choice,dává smysl,1610985588818,25_TG,TRUE,NULL
1610986044,590426487a788a3279fc98e4570d76ad,PennController,71,0,experiment,NULL,PennController,72,_Trial_,End,1610985589321,25_TG,TRUE,NULL
1610986044,590426487a788a3279fc98e4570d76ad,PennController,98,0,experiment,NULL,PennController,99,_Trial_,Start,1610985589323,19_RA,FALSE,NULL
1610986044,590426487a788a3279fc98e4570d76ad,PennController,98,0,experiment,NULL,Scale,anoNe,Choice,nedává smysl,1610985591901,19_RA,FALSE,NULL
1610986044,590426487a788a3279fc98e4570d76ad,PennController,98,0,experiment,NULL,PennController,99,_Trial_,End,1610985592402,19_RA,FALSE,NULL
1610986044,590426487a788a3279fc98e4570d76ad,PennController,32,0,experiment,NULL,PennController,33,_Trial_,Start,1610985592404,3_TA,FALSE,NULL
1610986044,590426487a788a3279fc98e4570d76ad,PennController,32,0,experiment,NULL,Scale,anoNe,Choice,nedává smysl,1610985596326,3_TA,FALSE,NULL
1610986044,590426487a788a3279fc98e4570d76ad,PennController,32,0,experiment,NULL,PennController,33,_Trial_,End,1610985596829,3_TA,FALSE,NULL
1610986044,590426487a788a3279fc98e4570d76ad,PennController,107,0,experiment,NULL,PennController,108,_Trial_,Start,1610985596830,28_TG,TRUE,NULL
1610986044,590426487a788a3279fc98e4570d76ad,PennController,107,0,experiment,NULL,Scale,anoNe,Choice,dává smysl,1610985602454,28_TG,TRUE,NULL
1610986044,590426487a788a3279fc98e4570d76ad,PennController,107,0,experiment,NULL,PennController,108,_Trial_,End,1610985602959,28_TG,TRUE,NULL
1610986044,590426487a788a3279fc98e4570d76ad,PennController,113,0,experiment,NULL,PennController,114,_Trial_,Start,1610985602961,29_RG,TRUE,NULL
1610986044,590426487a788a3279fc98e4570d76ad,PennController,113,0,experiment,NULL,Scale,anoNe,Choice,dává smysl,1610985606522,29_RG,TRUE,NULL
1610986044,590426487a788a3279fc98e4570d76ad,PennController,113,0,experiment,NULL,PennController,114,_Trial_,End,1610985607026,29_RG,TRUE,NULL
1610986044,590426487a788a3279fc98e4570d76ad,PennController,74,0,experiment,NULL,PennController,75,_Trial_,Start,1610985607027,25_RA,FALSE,NULL
1610986044,590426487a788a3279fc98e4570d76ad,PennController,74,0,experiment,NULL,Scale,anoNe,Choice,nedává smysl,1610985611026,25_RA,FALSE,NULL
1610986044,590426487a788a3279fc98e4570d76ad,PennController,74,0,experiment,NULL,PennController,75,_Trial_,End,1610985611531,25_RA,FALSE,NULL
1610986044,590426487a788a3279fc98e4570d76ad,PennController,133,0,experiment,NULL,PennController,134,_Trial_,Start,1610985611533,23_RG,TRUE,NULL
1610986044,590426487a788a3279fc98e4570d76ad,PennController,133,0,experiment,NULL,Scale,anoNe,Choice,dává smysl,1610985614126,23_RG,TRUE,NULL
1610986044,590426487a788a3279fc98e4570d76ad,PennController,133,0,experiment,NULL,PennController,134,_Trial_,End,1610985614627,23_RG,TRUE,NULL
1610986044,590426487a788a3279fc98e4570d76ad,PennController,14,0,experiment,NULL,PennController,15,_Trial_,Start,1610985614628,2_RA,FALSE,NULL
1610986044,590426487a788a3279fc98e4570d76ad,PennController,14,0,experiment,NULL,Scale,anoNe,Choice,nedává smysl,1610985617702,2_RA,FALSE,NULL
1610986044,590426487a788a3279fc98e4570d76ad,PennController,14,0,experiment,NULL,PennController,15,_Trial_,End,1610985618207,2_RA,FALSE,NULL
1610986044,590426487a788a3279fc98e4570d76ad,PennController,36,0,experiment,NULL,PennController,37,_Trial_,Start,1610985618208,4_TA,FALSE,NULL
1610986044,590426487a788a3279fc98e4570d76ad,PennController,36,0,experiment,NULL,Scale,anoNe,Choice,nedává smysl,1610985624166,4_TA,FALSE,NULL
1610986044,590426487a788a3279fc98e4570d76ad,PennController,36,0,experiment,NULL,PennController,37,_Trial_,End,1610985624667,4_TA,FALSE,NULL
1610986044,590426487a788a3279fc98e4570d76ad,PennController,104,0,experiment,NULL,PennController,105,_Trial_,Start,1610985624668,32_TA,FALSE,NULL
1610986044,590426487a788a3279fc98e4570d76ad,PennController,104,0,experiment,NULL,Scale,anoNe,Choice,nedává smysl,1610985629342,32_TA,FALSE,NULL
1610986044,590426487a788a3279fc98e4570d76ad,PennController,104,0,experiment,NULL,PennController,105,_Trial_,End,1610985629846,32_TA,FALSE,NULL
1610986044,590426487a788a3279fc98e4570d76ad,PennController,22,0,experiment,NULL,PennController,23,_Trial_,Start,1610985629847,10_RA,FALSE,NULL
1610986044,590426487a788a3279fc98e4570d76ad,PennController,22,0,experiment,NULL,Scale,anoNe,Choice,nedává smysl,1610985634138,10_RA,FALSE,NULL
1610986044,590426487a788a3279fc98e4570d76ad,PennController,22,0,experiment,NULL,PennController,23,_Trial_,End,1610985634640,10_RA,FALSE,NULL
1610986044,590426487a788a3279fc98e4570d76ad,PennController,76,0,experiment,NULL,PennController,77,_Trial_,Start,1610985634642,18_TA,FALSE,NULL
1610986044,590426487a788a3279fc98e4570d76ad,PennController,76,0,experiment,NULL,Scale,anoNe,Choice,nedává smysl,1610985639462,18_TA,FALSE,NULL
1610986044,590426487a788a3279fc98e4570d76ad,PennController,76,0,experiment,NULL,PennController,77,_Trial_,End,1610985639967,18_TA,FALSE,NULL
1610986044,590426487a788a3279fc98e4570d76ad,PennController,41,0,experiment,NULL,PennController,42,_Trial_,Start,1610985639968,16_RG,TRUE,NULL
1610986044,590426487a788a3279fc98e4570d76ad,PennController,41,0,experiment,NULL,Scale,anoNe,Choice,dává smysl,1610985643230,16_RG,TRUE,NULL
1610986044,590426487a788a3279fc98e4570d76ad,PennController,41,0,experiment,NULL,PennController,42,_Trial_,End,1610985643731,16_RG,TRUE,NULL
1610986044,590426487a788a3279fc98e4570d76ad,PennController,8,0,experiment,NULL,PennController,9,_Trial_,Start,1610985643732,9_TA,FALSE,NULL
1610986044,590426487a788a3279fc98e4570d76ad,PennController,8,0,experiment,NULL,Scale,anoNe,Choice,nedává smysl,1610985648782,9_TA,FALSE,NULL
1610986044,590426487a788a3279fc98e4570d76ad,PennController,8,0,experiment,NULL,PennController,9,_Trial_,End,1610985649287,9_TA,FALSE,NULL
1610986044,590426487a788a3279fc98e4570d76ad,PennController,132,0,experiment,NULL,PennController,133,_Trial_,Start,1610985649289,23_TA,FALSE,NULL
1610986044,590426487a788a3279fc98e4570d76ad,PennController,132,0,experiment,NULL,Scale,anoNe,Choice,nedává smysl,1610985653258,23_TA,FALSE,NULL
1610986044,590426487a788a3279fc98e4570d76ad,PennController,132,0,experiment,NULL,PennController,133,_Trial_,End,1610985653762,23_TA,FALSE,NULL
1610986044,590426487a788a3279fc98e4570d76ad,PennController,31,0,experiment,NULL,PennController,32,_Trial_,Start,1610985653763,3_TG,TRUE,NULL
1610986044,590426487a788a3279fc98e4570d76ad,PennController,31,0,experiment,NULL,Scale,anoNe,Choice,dává smysl,1610985656558,3_TG,TRUE,NULL
1610986044,590426487a788a3279fc98e4570d76ad,PennController,31,0,experiment,NULL,PennController,32,_Trial_,End,1610985657060,3_TG,TRUE,NULL
1610986044,590426487a788a3279fc98e4570d76ad,PennController,70,0,experiment,NULL,PennController,71,_Trial_,Start,1610985657063,7_RA,FALSE,NULL
1610986044,590426487a788a3279fc98e4570d76ad,PennController,70,0,experiment,NULL,Scale,anoNe,Choice,nedává smysl,1610985661850,7_RA,FALSE,NULL
1610986044,590426487a788a3279fc98e4570d76ad,PennController,70,0,experiment,NULL,PennController,71,_Trial_,End,1610985662354,7_RA,FALSE,NULL
1610986044,590426487a788a3279fc98e4570d76ad,PennController,101,0,experiment,NULL,PennController,102,_Trial_,Start,1610985662355,20_RG,TRUE,NULL
1610986044,590426487a788a3279fc98e4570d76ad,PennController,101,0,experiment,NULL,Scale,anoNe,Choice,dává smysl,1610985664878,20_RG,TRUE,NULL
1610986044,590426487a788a3279fc98e4570d76ad,PennController,101,0,experiment,NULL,PennController,102,_Trial_,End,1610985665381,20_RG,TRUE,NULL
1610986044,590426487a788a3279fc98e4570d76ad,PennController,114,0,experiment,NULL,PennController,115,_Trial_,Start,1610985665383,29_RA,FALSE,NULL
1610986044,590426487a788a3279fc98e4570d76ad,PennController,114,0,experiment,NULL,Scale,anoNe,Choice,nedává smysl,1610985668234,29_RA,FALSE,NULL
1610986044,590426487a788a3279fc98e4570d76ad,PennController,114,0,experiment,NULL,PennController,115,_Trial_,End,1610985668738,29_RA,FALSE,NULL
1610986044,590426487a788a3279fc98e4570d76ad,PennController,110,0,experiment,NULL,PennController,111,_Trial_,Start,1610985668739,28_RA,FALSE,NULL
1610986044,590426487a788a3279fc98e4570d76ad,PennController,110,0,experiment,NULL,Scale,anoNe,Choice,nedává smysl,1610985671446,28_RA,FALSE,NULL
1610986044,590426487a788a3279fc98e4570d76ad,PennController,110,0,experiment,NULL,PennController,111,_Trial_,End,1610985671953,28_RA,FALSE,NULL
1610986044,590426487a788a3279fc98e4570d76ad,PennController,13,0,experiment,NULL,PennController,14,_Trial_,Start,1610985671954,2_RG,TRUE,NULL
1610986044,590426487a788a3279fc98e4570d76ad,PennController,13,0,experiment,NULL,Scale,anoNe,Choice,dává smysl,1610985674194,2_RG,TRUE,NULL
1610986044,590426487a788a3279fc98e4570d76ad,PennController,13,0,experiment,NULL,PennController,14,_Trial_,End,1610985674699,2_RG,TRUE,NULL
1610986044,590426487a788a3279fc98e4570d76ad,PennController,18,0,experiment,NULL,PennController,19,_Trial_,Start,1610985674700,11_RA,FALSE,NULL
1610986044,590426487a788a3279fc98e4570d76ad,PennController,18,0,experiment,NULL,Scale,anoNe,Choice,nedává smysl,1610985679346,11_RA,FALSE,NULL
1610986044,590426487a788a3279fc98e4570d76ad,PennController,18,0,experiment,NULL,PennController,19,_Trial_,End,1610985679849,11_RA,FALSE,NULL
1610986044,590426487a788a3279fc98e4570d76ad,PennController,90,0,experiment,NULL,PennController,91,_Trial_,Start,1610985679850,17_RA,FALSE,NULL
1610986044,590426487a788a3279fc98e4570d76ad,PennController,90,0,experiment,NULL,Scale,anoNe,Choice,nedává smysl,1610985682294,17_RA,FALSE,NULL
1610986044,590426487a788a3279fc98e4570d76ad,PennController,90,0,experiment,NULL,PennController,91,_Trial_,End,1610985682797,17_RA,FALSE,NULL
1610986044,590426487a788a3279fc98e4570d76ad,PennController,65,0,experiment,NULL,PennController,66,_Trial_,Start,1610985682798,15_RG,TRUE,NULL
1610986044,590426487a788a3279fc98e4570d76ad,PennController,65,0,experiment,NULL,Scale,anoNe,Choice,dává smysl,1610985687190,15_RG,TRUE,NULL
1610986044,590426487a788a3279fc98e4570d76ad,PennController,65,0,experiment,NULL,PennController,66,_Trial_,End,1610985687695,15_RG,TRUE,NULL
1610986044,590426487a788a3279fc98e4570d76ad,PennController,85,0,experiment,NULL,PennController,86,_Trial_,Start,1610985687696,26_RG,TRUE,NULL
1610986044,590426487a788a3279fc98e4570d76ad,PennController,85,0,experiment,NULL,Scale,anoNe,Choice,dává smysl,1610985690526,26_RG,TRUE,NULL
1610986044,590426487a788a3279fc98e4570d76ad,PennController,85,0,experiment,NULL,PennController,86,_Trial_,End,1610985691030,26_RG,TRUE,NULL
1610986044,590426487a788a3279fc98e4570d76ad,PennController,88,0,experiment,NULL,PennController,89,_Trial_,Start,1610985691031,17_TA,FALSE,NULL
1610986044,590426487a788a3279fc98e4570d76ad,PennController,88,0,experiment,NULL,Scale,anoNe,Choice,nedává smysl,1610985693905,17_TA,FALSE,NULL
1610986044,590426487a788a3279fc98e4570d76ad,PennController,88,0,experiment,NULL,PennController,89,_Trial_,End,1610985694410,17_TA,FALSE,NULL
1610986044,590426487a788a3279fc98e4570d76ad,PennController,55,0,experiment,NULL,PennController,56,_Trial_,Start,1610985694412,14_TG,TRUE,NULL
1610986044,590426487a788a3279fc98e4570d76ad,PennController,55,0,experiment,NULL,Scale,anoNe,Choice,dává smysl,1610985697221,14_TG,TRUE,NULL
1610986044,590426487a788a3279fc98e4570d76ad,PennController,55,0,experiment,NULL,PennController,56,_Trial_,End,1610985697725,14_TG,TRUE,NULL
1610986044,590426487a788a3279fc98e4570d76ad,PennController,30,0,experiment,NULL,PennController,31,_Trial_,Start,1610985697727,8_RA,FALSE,NULL
1610986044,590426487a788a3279fc98e4570d76ad,PennController,30,0,experiment,NULL,Scale,anoNe,Choice,nedává smysl,1610985700330,8_RA,FALSE,NULL
1610986044,590426487a788a3279fc98e4570d76ad,PennController,30,0,experiment,NULL,PennController,31,_Trial_,End,1610985700833,8_RA,FALSE,NULL
1610986044,590426487a788a3279fc98e4570d76ad,PennController,82,0,experiment,NULL,PennController,83,_Trial_,Start,1610985700834,27_RA,FALSE,NULL
1610986044,590426487a788a3279fc98e4570d76ad,PennController,82,0,experiment,NULL,Scale,anoNe,Choice,nedává smysl,1610985703854,27_RA,FALSE,NULL
1610986044,590426487a788a3279fc98e4570d76ad,PennController,82,0,experiment,NULL,PennController,83,_Trial_,End,1610985704360,27_RA,FALSE,NULL
1610986044,590426487a788a3279fc98e4570d76ad,PennController,122,0,experiment,NULL,PennController,123,_Trial_,Start,1610985704361,30_RA,FALSE,NULL
1610986044,590426487a788a3279fc98e4570d76ad,PennController,122,0,experiment,NULL,Scale,anoNe,Choice,nedává smysl,1610985707462,30_RA,FALSE,NULL
1610986044,590426487a788a3279fc98e4570d76ad,PennController,122,0,experiment,NULL,PennController,123,_Trial_,End,1610985707967,30_RA,FALSE,NULL
1610986044,590426487a788a3279fc98e4570d76ad,PennController,89,0,experiment,NULL,PennController,90,_Trial_,Start,1610985707969,17_RG,TRUE,NULL
1610986044,590426487a788a3279fc98e4570d76ad,PennController,89,0,experiment,NULL,Scale,anoNe,Choice,dává smysl,1610985710250,17_RG,TRUE,NULL
1610986044,590426487a788a3279fc98e4570d76ad,PennController,89,0,experiment,NULL,PennController,90,_Trial_,End,1610985710756,17_RG,TRUE,NULL
1610986044,590426487a788a3279fc98e4570d76ad,PennController,124,0,experiment,NULL,PennController,125,_Trial_,Start,1610985710758,22_TA,FALSE,NULL
1610986044,590426487a788a3279fc98e4570d76ad,PennController,124,0,experiment,NULL,Scale,anoNe,Choice,nedává smysl,1610985714678,22_TA,FALSE,NULL
1610986044,590426487a788a3279fc98e4570d76ad,PennController,124,0,experiment,NULL,PennController,125,_Trial_,End,1610985715180,22_TA,FALSE,NULL
1610986044,590426487a788a3279fc98e4570d76ad,PennController,94,0,experiment,NULL,PennController,95,_Trial_,Start,1610985715182,24_RA,FALSE,NULL
1610986044,590426487a788a3279fc98e4570d76ad,PennController,94,0,experiment,NULL,Scale,anoNe,Choice,nedává smysl,1610985717802,24_RA,FALSE,NULL
1610986044,590426487a788a3279fc98e4570d76ad,PennController,94,0,experiment,NULL,PennController,95,_Trial_,End,1610985718306,24_RA,FALSE,NULL
1610986044,590426487a788a3279fc98e4570d76ad,PennController,37,0,experiment,NULL,PennController,38,_Trial_,Start,1610985718307,4_RG,TRUE,NULL
1610986044,590426487a788a3279fc98e4570d76ad,PennController,37,0,experiment,NULL,Scale,anoNe,Choice,dává smysl,1610985721467,4_RG,TRUE,NULL
1610986044,590426487a788a3279fc98e4570d76ad,PennController,37,0,experiment,NULL,PennController,38,_Trial_,End,1610985721969,4_RG,TRUE,NULL
1610986044,590426487a788a3279fc98e4570d76ad,PennController,97,0,experiment,NULL,PennController,98,_Trial_,Start,1610985721972,19_RG,TRUE,NULL
1610986044,590426487a788a3279fc98e4570d76ad,PennController,97,0,experiment,NULL,Scale,anoNe,Choice,dává smysl,1610985724229,19_RG,TRUE,NULL
1610986044,590426487a788a3279fc98e4570d76ad,PennController,97,0,experiment,NULL,PennController,98,_Trial_,End,1610985724734,19_RG,TRUE,NULL
1610986044,590426487a788a3279fc98e4570d76ad,PennController,81,0,experiment,NULL,PennController,82,_Trial_,Start,1610985724737,27_RG,TRUE,NULL
1610986044,590426487a788a3279fc98e4570d76ad,PennController,81,0,experiment,NULL,Scale,anoNe,Choice,dává smysl,1610985726937,27_RG,TRUE,NULL
1610986044,590426487a788a3279fc98e4570d76ad,PennController,81,0,experiment,NULL,PennController,82,_Trial_,End,1610985727442,27_RG,TRUE,NULL
1610986044,590426487a788a3279fc98e4570d76ad,PennController,108,0,experiment,NULL,PennController,109,_Trial_,Start,1610985727443,28_TA,FALSE,NULL
1610986044,590426487a788a3279fc98e4570d76ad,PennController,108,0,experiment,NULL,Scale,anoNe,Choice,nedává smysl,1610985729742,28_TA,FALSE,NULL
1610986044,590426487a788a3279fc98e4570d76ad,PennController,108,0,experiment,NULL,PennController,109,_Trial_,End,1610985730247,28_TA,FALSE,NULL
1610986044,590426487a788a3279fc98e4570d76ad,PennController,87,0,experiment,NULL,PennController,88,_Trial_,Start,1610985730248,17_TG,TRUE,NULL
1610986044,590426487a788a3279fc98e4570d76ad,PennController,87,0,experiment,NULL,Scale,anoNe,Choice,dává smysl,1610985733030,17_TG,TRUE,NULL
1610986044,590426487a788a3279fc98e4570d76ad,PennController,87,0,experiment,NULL,PennController,88,_Trial_,End,1610985733533,17_TG,TRUE,NULL
1610986044,590426487a788a3279fc98e4570d76ad,PennController,86,0,experiment,NULL,PennController,87,_Trial_,Start,1610985733535,26_RA,FALSE,NULL
1610986044,590426487a788a3279fc98e4570d76ad,PennController,86,0,experiment,NULL,Scale,anoNe,Choice,nedává smysl,1610985736018,26_RA,FALSE,NULL
1610986044,590426487a788a3279fc98e4570d76ad,PennController,86,0,experiment,NULL,PennController,87,_Trial_,End,1610985736519,26_RA,FALSE,NULL
1610986044,590426487a788a3279fc98e4570d76ad,PennController,103,0,experiment,NULL,PennController,104,_Trial_,Start,1610985736521,32_TG,TRUE,NULL
1610986044,590426487a788a3279fc98e4570d76ad,PennController,103,0,experiment,NULL,Scale,anoNe,Choice,dává smysl,1610985739382,32_TG,TRUE,NULL
1610986044,590426487a788a3279fc98e4570d76ad,PennController,103,0,experiment,NULL,PennController,104,_Trial_,End,1610985739884,32_TG,TRUE,NULL
1610986044,590426487a788a3279fc98e4570d76ad,PennController,50,0,experiment,NULL,PennController,51,_Trial_,Start,1610985739886,13_RA,FALSE,NULL
1610986044,590426487a788a3279fc98e4570d76ad,PennController,50,0,experiment,NULL,Scale,anoNe,Choice,nedává smysl,1610985742074,13_RA,FALSE,NULL
1610986044,590426487a788a3279fc98e4570d76ad,PennController,50,0,experiment,NULL,PennController,51,_Trial_,End,1610985742576,13_RA,FALSE,NULL
1610986044,590426487a788a3279fc98e4570d76ad,PennController,10,0,experiment,NULL,PennController,11,_Trial_,Start,1610985742578,9_RA,FALSE,NULL
1610986044,590426487a788a3279fc98e4570d76ad,PennController,10,0,experiment,NULL,Scale,anoNe,Choice,nedává smysl,1610985745005,9_RA,FALSE,NULL
1610986044,590426487a788a3279fc98e4570d76ad,PennController,10,0,experiment,NULL,PennController,11,_Trial_,End,1610985745512,9_RA,FALSE,NULL
1610986044,590426487a788a3279fc98e4570d76ad,PennController,109,0,experiment,NULL,PennController,110,_Trial_,Start,1610985745513,28_RG,TRUE,NULL
1610986044,590426487a788a3279fc98e4570d76ad,PennController,109,0,experiment,NULL,Scale,anoNe,Choice,dává smysl,1610985748582,28_RG,TRUE,NULL
1610986044,590426487a788a3279fc98e4570d76ad,PennController,109,0,experiment,NULL,PennController,110,_Trial_,End,1610985749085,28_RG,TRUE,NULL
1610986044,590426487a788a3279fc98e4570d76ad,PennController,27,0,experiment,NULL,PennController,28,_Trial_,Start,1610985749087,8_TG,TRUE,NULL
1610986044,590426487a788a3279fc98e4570d76ad,PennController,27,0,experiment,NULL,Scale,anoNe,Choice,dává smysl,1610985751986,8_TG,TRUE,NULL
1610986044,590426487a788a3279fc98e4570d76ad,PennController,27,0,experiment,NULL,PennController,28,_Trial_,End,1610985752487,8_TG,TRUE,NULL
1610986044,590426487a788a3279fc98e4570d76ad,PennController,125,0,experiment,NULL,PennController,126,_Trial_,Start,1610985752489,22_RG,TRUE,NULL
1610986044,590426487a788a3279fc98e4570d76ad,PennController,125,0,experiment,NULL,Scale,anoNe,Choice,dává smysl,1610985754734,22_RG,TRUE,NULL
1610986044,590426487a788a3279fc98e4570d76ad,PennController,125,0,experiment,NULL,PennController,126,_Trial_,End,1610985755236,22_RG,TRUE,NULL
1610986044,590426487a788a3279fc98e4570d76ad,PennController,72,0,experiment,NULL,PennController,73,_Trial_,Start,1610985755238,25_TA,FALSE,NULL
1610986044,590426487a788a3279fc98e4570d76ad,PennController,72,0,experiment,NULL,Scale,anoNe,Choice,nedává smysl,1610985757926,25_TA,FALSE,NULL
1610986044,590426487a788a3279fc98e4570d76ad,PennController,72,0,experiment,NULL,PennController,73,_Trial_,End,1610985758430,25_TA,FALSE,NULL
1610986044,590426487a788a3279fc98e4570d76ad,PennController,120,0,experiment,NULL,PennController,121,_Trial_,Start,1610985758432,30_TA,FALSE,NULL
1610986044,590426487a788a3279fc98e4570d76ad,PennController,120,0,experiment,NULL,Scale,anoNe,Choice,nedává smysl,1610985762822,30_TA,FALSE,NULL
1610986044,590426487a788a3279fc98e4570d76ad,PennController,120,0,experiment,NULL,PennController,121,_Trial_,End,1610985763326,30_TA,FALSE,NULL
1610986044,590426487a788a3279fc98e4570d76ad,PennController,128,0,experiment,NULL,PennController,129,_Trial_,Start,1610985763328,31_TA,FALSE,NULL
1610986044,590426487a788a3279fc98e4570d76ad,PennController,128,0,experiment,NULL,Scale,anoNe,Choice,nedává smysl,1610985765666,31_TA,FALSE,NULL
1610986044,590426487a788a3279fc98e4570d76ad,PennController,128,0,experiment,NULL,PennController,129,_Trial_,End,1610985766168,31_TA,FALSE,NULL
1610986044,590426487a788a3279fc98e4570d76ad,PennController,28,0,experiment,NULL,PennController,29,_Trial_,Start,1610985766169,8_TA,FALSE,NULL
1610986044,590426487a788a3279fc98e4570d76ad,PennController,28,0,experiment,NULL,Scale,anoNe,Choice,nedává smysl,1610985769035,8_TA,FALSE,NULL
1610986044,590426487a788a3279fc98e4570d76ad,PennController,28,0,experiment,NULL,PennController,29,_Trial_,End,1610985769540,8_TA,FALSE,NULL
1610986044,590426487a788a3279fc98e4570d76ad,PennController,23,0,experiment,NULL,PennController,24,_Trial_,Start,1610985769542,1_TG,TRUE,NULL
1610986044,590426487a788a3279fc98e4570d76ad,PennController,23,0,experiment,NULL,Scale,anoNe,Choice,dává smysl,1610985772334,1_TG,TRUE,NULL
1610986044,590426487a788a3279fc98e4570d76ad,PennController,23,0,experiment,NULL,PennController,24,_Trial_,End,1610985772840,1_TG,TRUE,NULL
1610986044,590426487a788a3279fc98e4570d76ad,PennController,73,0,experiment,NULL,PennController,74,_Trial_,Start,1610985772842,25_RG,TRUE,NULL
1610986044,590426487a788a3279fc98e4570d76ad,PennController,73,0,experiment,NULL,Scale,anoNe,Choice,dává smysl,1610985775442,25_RG,TRUE,NULL
1610986044,590426487a788a3279fc98e4570d76ad,PennController,73,0,experiment,NULL,PennController,74,_Trial_,End,1610985775945,25_RG,TRUE,NULL
1610986044,590426487a788a3279fc98e4570d76ad,PennController,115,0,experiment,NULL,PennController,116,_Trial_,Start,1610985775946,21_TG,TRUE,NULL
1610986044,590426487a788a3279fc98e4570d76ad,PennController,115,0,experiment,NULL,Scale,anoNe,Choice,dává smysl,1610985778198,21_TG,TRUE,NULL
1610986044,590426487a788a3279fc98e4570d76ad,PennController,115,0,experiment,NULL,PennController,116,_Trial_,End,1610985778700,21_TG,TRUE,NULL
1610986044,590426487a788a3279fc98e4570d76ad,PennController,39,0,experiment,NULL,PennController,40,_Trial_,Start,1610985778701,16_TG,TRUE,NULL
1610986044,590426487a788a3279fc98e4570d76ad,PennController,39,0,experiment,NULL,Scale,anoNe,Choice,dává smysl,1610985780914,16_TG,TRUE,NULL
1610986044,590426487a788a3279fc98e4570d76ad,PennController,39,0,experiment,NULL,PennController,40,_Trial_,End,1610985781419,16_TG,TRUE,NULL
1610986044,590426487a788a3279fc98e4570d76ad,PennController,106,0,experiment,NULL,PennController,107,_Trial_,Start,1610985781421,32_RA,FALSE,NULL
1610986044,590426487a788a3279fc98e4570d76ad,PennController,106,0,experiment,NULL,Scale,anoNe,Choice,nedává smysl,1610985785606,32_RA,FALSE,NULL
1610986044,590426487a788a3279fc98e4570d76ad,PennController,106,0,experiment,NULL,PennController,107,_Trial_,End,1610985786111,32_RA,FALSE,NULL
1610986044,590426487a788a3279fc98e4570d76ad,PennController,119,0,experiment,NULL,PennController,120,_Trial_,Start,1610985786112,30_TG,TRUE,NULL
1610986044,590426487a788a3279fc98e4570d76ad,PennController,119,0,experiment,NULL,Scale,anoNe,Choice,dává smysl,1610985788730,30_TG,TRUE,NULL
1610986044,590426487a788a3279fc98e4570d76ad,PennController,119,0,experiment,NULL,PennController,120,_Trial_,End,1610985789231,30_TG,TRUE,NULL
1610986044,590426487a788a3279fc98e4570d76ad,PennController,117,0,experiment,NULL,PennController,118,_Trial_,Start,1610985789233,21_RG,TRUE,NULL
1610986044,590426487a788a3279fc98e4570d76ad,PennController,117,0,experiment,NULL,Scale,anoNe,Choice,dává smysl,1610985795702,21_RG,TRUE,NULL
1610986044,590426487a788a3279fc98e4570d76ad,PennController,117,0,experiment,NULL,PennController,118,_Trial_,End,1610985796207,21_RG,TRUE,NULL
1610986044,590426487a788a3279fc98e4570d76ad,PennController,56,0,experiment,NULL,PennController,57,_Trial_,Start,1610985796208,14_TA,FALSE,NULL
1610986044,590426487a788a3279fc98e4570d76ad,PennController,56,0,experiment,NULL,Scale,anoNe,Choice,nedává smysl,1610985798362,14_TA,FALSE,NULL
1610986044,590426487a788a3279fc98e4570d76ad,PennController,56,0,experiment,NULL,PennController,57,_Trial_,End,1610985798868,14_TA,FALSE,NULL
1610986044,590426487a788a3279fc98e4570d76ad,PennController,34,0,experiment,NULL,PennController,35,_Trial_,Start,1610985798869,3_RA,FALSE,NULL
1610986044,590426487a788a3279fc98e4570d76ad,PennController,34,0,experiment,NULL,Scale,anoNe,Choice,nedává smysl,1610985801143,3_RA,FALSE,NULL
1610986044,590426487a788a3279fc98e4570d76ad,PennController,34,0,experiment,NULL,PennController,35,_Trial_,End,1610985801646,3_RA,FALSE,NULL
1610986044,590426487a788a3279fc98e4570d76ad,PennController,44,0,experiment,NULL,PennController,45,_Trial_,Start,1610985801647,12_TA,FALSE,NULL
1610986044,590426487a788a3279fc98e4570d76ad,PennController,44,0,experiment,NULL,Scale,anoNe,Choice,nedává smysl,1610985804362,12_TA,FALSE,NULL
1610986044,590426487a788a3279fc98e4570d76ad,PennController,44,0,experiment,NULL,PennController,45,_Trial_,End,1610985804867,12_TA,FALSE,NULL
1610986044,590426487a788a3279fc98e4570d76ad,PennController,134,0,experiment,NULL,PennController,135,_Trial_,Start,1610985804869,23_RA,FALSE,NULL
1610986044,590426487a788a3279fc98e4570d76ad,PennController,134,0,experiment,NULL,Scale,anoNe,Choice,nedává smysl,1610985807682,23_RA,FALSE,NULL
1610986044,590426487a788a3279fc98e4570d76ad,PennController,134,0,experiment,NULL,PennController,135,_Trial_,End,1610985808185,23_RA,FALSE,NULL
1610986044,590426487a788a3279fc98e4570d76ad,PennController,38,0,experiment,NULL,PennController,39,_Trial_,Start,1610985808187,4_RA,FALSE,NULL
1610986044,590426487a788a3279fc98e4570d76ad,PennController,38,0,experiment,NULL,Scale,anoNe,Choice,nedává smysl,1610985811219,4_RA,FALSE,NULL
1610986044,590426487a788a3279fc98e4570d76ad,PennController,38,0,experiment,NULL,PennController,39,_Trial_,End,1610985811721,4_RA,FALSE,NULL
1610986044,590426487a788a3279fc98e4570d76ad,PennController,9,0,experiment,NULL,PennController,10,_Trial_,Start,1610985811723,9_RG,TRUE,NULL
1610986044,590426487a788a3279fc98e4570d76ad,PennController,9,0,experiment,NULL,Scale,anoNe,Choice,dává smysl,1610985814151,9_RG,TRUE,NULL
1610986044,590426487a788a3279fc98e4570d76ad,PennController,9,0,experiment,NULL,PennController,10,_Trial_,End,1610985814656,9_RG,TRUE,NULL
1610986044,590426487a788a3279fc98e4570d76ad,PennController,84,0,experiment,NULL,PennController,85,_Trial_,Start,1610985814658,26_TA,FALSE,NULL
1610986044,590426487a788a3279fc98e4570d76ad,PennController,84,0,experiment,NULL,Scale,anoNe,Choice,nedává smysl,1610985817991,26_TA,FALSE,NULL
1610986044,590426487a788a3279fc98e4570d76ad,PennController,84,0,experiment,NULL,PennController,85,_Trial_,End,1610985818496,26_TA,FALSE,NULL
1610986044,590426487a788a3279fc98e4570d76ad,PennController,78,0,experiment,NULL,PennController,79,_Trial_,Start,1610985818497,18_RA,FALSE,NULL
1610986044,590426487a788a3279fc98e4570d76ad,PennController,78,0,experiment,NULL,Scale,anoNe,Choice,nedává smysl,1610985820354,18_RA,FALSE,NULL
1610986044,590426487a788a3279fc98e4570d76ad,PennController,78,0,experiment,NULL,PennController,79,_Trial_,End,1610985820856,18_RA,FALSE,NULL
1610986044,590426487a788a3279fc98e4570d76ad,PennController,47,0,experiment,NULL,PennController,48,_Trial_,Start,1610985820857,13_TG,TRUE,NULL
1610986044,590426487a788a3279fc98e4570d76ad,PennController,47,0,experiment,NULL,Scale,anoNe,Choice,dává smysl,1610985823219,13_TG,TRUE,NULL
1610986044,590426487a788a3279fc98e4570d76ad,PennController,47,0,experiment,NULL,PennController,48,_Trial_,End,1610985823723,13_TG,TRUE,NULL
1610986044,590426487a788a3279fc98e4570d76ad,PennController,63,0,experiment,NULL,PennController,64,_Trial_,Start,1610985823726,15_TG,TRUE,NULL
1610986044,590426487a788a3279fc98e4570d76ad,PennController,63,0,experiment,NULL,Scale,anoNe,Choice,dává smysl,1610985827126,15_TG,TRUE,NULL
1610986044,590426487a788a3279fc98e4570d76ad,PennController,63,0,experiment,NULL,PennController,64,_Trial_,End,1610985827629,15_TG,TRUE,NULL
1610986044,590426487a788a3279fc98e4570d76ad,PennController,116,0,experiment,NULL,PennController,117,_Trial_,Start,1610985827630,21_TA,FALSE,NULL
1610986044,590426487a788a3279fc98e4570d76ad,PennController,116,0,experiment,NULL,Scale,anoNe,Choice,nedává smysl,1610985830863,21_TA,FALSE,NULL
1610986044,590426487a788a3279fc98e4570d76ad,PennController,116,0,experiment,NULL,PennController,117,_Trial_,End,1610985831365,21_TA,FALSE,NULL
1610986044,590426487a788a3279fc98e4570d76ad,PennController,40,0,experiment,NULL,PennController,41,_Trial_,Start,1610985831366,16_TA,FALSE,NULL
1610986044,590426487a788a3279fc98e4570d76ad,PennController,40,0,experiment,NULL,Scale,anoNe,Choice,nedává smysl,1610985835750,16_TA,FALSE,NULL
1610986044,590426487a788a3279fc98e4570d76ad,PennController,40,0,experiment,NULL,PennController,41,_Trial_,End,1610985836252,16_TA,FALSE,NULL
1610986044,590426487a788a3279fc98e4570d76ad,PennController,26,0,experiment,NULL,PennController,27,_Trial_,Start,1610985836253,1_RA,FALSE,NULL
1610986044,590426487a788a3279fc98e4570d76ad,PennController,26,0,experiment,NULL,Scale,anoNe,Choice,nedává smysl,1610985840646,1_RA,FALSE,NULL
1610986044,590426487a788a3279fc98e4570d76ad,PennController,26,0,experiment,NULL,PennController,27,_Trial_,End,1610985841148,1_RA,FALSE,NULL
1610986044,590426487a788a3279fc98e4570d76ad,PennController,48,0,experiment,NULL,PennController,49,_Trial_,Start,1610985841150,13_TA,FALSE,NULL
1610986044,590426487a788a3279fc98e4570d76ad,PennController,48,0,experiment,NULL,Scale,anoNe,Choice,nedává smysl,1610985858490,13_TA,FALSE,NULL
1610986044,590426487a788a3279fc98e4570d76ad,PennController,48,0,experiment,NULL,PennController,49,_Trial_,End,1610985858992,13_TA,FALSE,NULL
1610986044,590426487a788a3279fc98e4570d76ad,PennController,53,0,experiment,NULL,PennController,54,_Trial_,Start,1610985858994,5_RG,TRUE,NULL
1610986044,590426487a788a3279fc98e4570d76ad,PennController,53,0,experiment,NULL,Scale,anoNe,Choice,dává smysl,1610985863714,5_RG,TRUE,NULL
1610986044,590426487a788a3279fc98e4570d76ad,PennController,53,0,experiment,NULL,PennController,54,_Trial_,End,1610985864217,5_RG,TRUE,NULL
1610986044,590426487a788a3279fc98e4570d76ad,PennController,69,0,experiment,NULL,PennController,70,_Trial_,Start,1610985864219,7_RG,TRUE,NULL
1610986044,590426487a788a3279fc98e4570d76ad,PennController,69,0,experiment,NULL,Scale,anoNe,Choice,dává smysl,1610985866246,7_RG,TRUE,NULL
1610986044,590426487a788a3279fc98e4570d76ad,PennController,69,0,experiment,NULL,PennController,70,_Trial_,End,1610985866752,7_RG,TRUE,NULL
1610986044,590426487a788a3279fc98e4570d76ad,PennController,91,0,experiment,NULL,PennController,92,_Trial_,Start,1610985866754,24_TG,TRUE,NULL
1610986044,590426487a788a3279fc98e4570d76ad,PennController,91,0,experiment,NULL,Scale,anoNe,Choice,dává smysl,1610985869302,24_TG,TRUE,NULL
1610986044,590426487a788a3279fc98e4570d76ad,PennController,91,0,experiment,NULL,PennController,92,_Trial_,End,1610985869805,24_TG,TRUE,NULL
1610986044,590426487a788a3279fc98e4570d76ad,PennController,7,0,experiment,NULL,PennController,8,_Trial_,Start,1610985869807,9_TG,TRUE,NULL
1610986044,590426487a788a3279fc98e4570d76ad,PennController,7,0,experiment,NULL,Scale,anoNe,Choice,dává smysl,1610985871699,9_TG,TRUE,NULL
1610986044,590426487a788a3279fc98e4570d76ad,PennController,7,0,experiment,NULL,PennController,8,_Trial_,End,1610985872204,9_TG,TRUE,NULL
1610986044,590426487a788a3279fc98e4570d76ad,PennController,95,0,experiment,NULL,PennController,96,_Trial_,Start,1610985872205,19_TG,TRUE,NULL
1610986044,590426487a788a3279fc98e4570d76ad,PennController,95,0,experiment,NULL,Scale,anoNe,Choice,dává smysl,1610985875419,19_TG,TRUE,NULL
1610986044,590426487a788a3279fc98e4570d76ad,PennController,95,0,experiment,NULL,PennController,96,_Trial_,End,1610985875921,19_TG,TRUE,NULL
1610986044,590426487a788a3279fc98e4570d76ad,PennController,24,0,experiment,NULL,PennController,25,_Trial_,Start,1610985875923,1_TA,FALSE,NULL
1610986044,590426487a788a3279fc98e4570d76ad,PennController,24,0,experiment,NULL,Scale,anoNe,Choice,nedává smysl,1610985878523,1_TA,FALSE,NULL
1610986044,590426487a788a3279fc98e4570d76ad,PennController,24,0,experiment,NULL,PennController,25,_Trial_,End,1610985879025,1_TA,FALSE,NULL
1610986044,590426487a788a3279fc98e4570d76ad,PennController,131,0,experiment,NULL,PennController,132,_Trial_,Start,1610985879028,23_TG,TRUE,NULL
1610986044,590426487a788a3279fc98e4570d76ad,PennController,131,0,experiment,NULL,Scale,anoNe,Choice,dává smysl,1610985881519,23_TG,TRUE,NULL
1610986044,590426487a788a3279fc98e4570d76ad,PennController,131,0,experiment,NULL,PennController,132,_Trial_,End,1610985882022,23_TG,TRUE,NULL
1610986044,590426487a788a3279fc98e4570d76ad,PennController,102,0,experiment,NULL,PennController,103,_Trial_,Start,1610985882023,20_RA,FALSE,NULL
1610986044,590426487a788a3279fc98e4570d76ad,PennController,102,0,experiment,NULL,Scale,anoNe,Choice,nedává smysl,1610985884279,20_RA,FALSE,NULL
1610986044,590426487a788a3279fc98e4570d76ad,PennController,102,0,experiment,NULL,PennController,103,_Trial_,End,1610985884781,20_RA,FALSE,NULL
1610986044,590426487a788a3279fc98e4570d76ad,PennController,43,0,experiment,NULL,PennController,44,_Trial_,Start,1610985884782,12_TG,TRUE,NULL
1610986044,590426487a788a3279fc98e4570d76ad,PennController,43,0,experiment,NULL,Scale,anoNe,Choice,dává smysl,1610985889231,12_TG,TRUE,NULL
1610986044,590426487a788a3279fc98e4570d76ad,PennController,43,0,experiment,NULL,PennController,44,_Trial_,End,1610985889734,12_TG,TRUE,NULL
1610986044,590426487a788a3279fc98e4570d76ad,PennController,121,0,experiment,NULL,PennController,122,_Trial_,Start,1610985889736,30_RG,TRUE,NULL
1610986044,590426487a788a3279fc98e4570d76ad,PennController,121,0,experiment,NULL,Scale,anoNe,Choice,dává smysl,1610985892226,30_RG,TRUE,NULL
1610986044,590426487a788a3279fc98e4570d76ad,PennController,121,0,experiment,NULL,PennController,122,_Trial_,End,1610985892729,30_RG,TRUE,NULL
1610986044,590426487a788a3279fc98e4570d76ad,PennController,45,0,experiment,NULL,PennController,46,_Trial_,Start,1610985892730,12_RG,TRUE,NULL
1610986044,590426487a788a3279fc98e4570d76ad,PennController,45,0,experiment,NULL,Scale,anoNe,Choice,dává smysl,1610985895059,12_RG,TRUE,NULL
1610986044,590426487a788a3279fc98e4570d76ad,PennController,45,0,experiment,NULL,PennController,46,_Trial_,End,1610985895563,12_RG,TRUE,NULL
1610986044,590426487a788a3279fc98e4570d76ad,PennController,25,0,experiment,NULL,PennController,26,_Trial_,Start,1610985895565,1_RG,TRUE,NULL
1610986044,590426487a788a3279fc98e4570d76ad,PennController,25,0,experiment,NULL,Scale,anoNe,Choice,dává smysl,1610985897478,1_RG,TRUE,NULL
1610986044,590426487a788a3279fc98e4570d76ad,PennController,25,0,experiment,NULL,PennController,26,_Trial_,End,1610985897983,1_RG,TRUE,NULL
1610986044,590426487a788a3279fc98e4570d76ad,PennController,15,0,experiment,NULL,PennController,16,_Trial_,Start,1610985897985,11_TG,TRUE,NULL
1610986044,590426487a788a3279fc98e4570d76ad,PennController,15,0,experiment,NULL,Scale,anoNe,Choice,dává smysl,1610985902530,11_TG,TRUE,NULL
1610986044,590426487a788a3279fc98e4570d76ad,PennController,15,0,experiment,NULL,PennController,16,_Trial_,End,1610985903035,11_TG,TRUE,NULL
1610986044,590426487a788a3279fc98e4570d76ad,PennController,66,0,experiment,NULL,PennController,67,_Trial_,Start,1610985903036,15_RA,FALSE,NULL
1610986044,590426487a788a3279fc98e4570d76ad,PennController,66,0,experiment,NULL,Scale,anoNe,Choice,nedává smysl,1610985913330,15_RA,FALSE,NULL
1610986044,590426487a788a3279fc98e4570d76ad,PennController,66,0,experiment,NULL,PennController,67,_Trial_,End,1610985913836,15_RA,FALSE,NULL
1610986044,590426487a788a3279fc98e4570d76ad,PennController,99,0,experiment,NULL,PennController,100,_Trial_,Start,1610985913838,20_TG,TRUE,NULL
